* Sea-Bird SBE19plus Data File:
* FileName = C:\Users\FWCP_NRP\Documents\Seabird\Data\Kootenay\2018\KL_27Aug2018\KL_27Aug2018008.hex
* Software Version 1.59
* Temperature SN =  4708
* Conductivity SN =  4708
* System UpLoad Time = Aug 28 2018 14:54:13
* ds
* SeacatPlus V 1.4D  SERIAL NO. 4708    28 Aug 2018  13:35:42
* vbatt = 13.2, vlith =  8.1, ioper =  61.8 ma, ipump =  59.5 ma,
* iext01 =   5.1 ma, iext23 =  46.2 ma,
* status = not logging
* number of scans to average = 1
* samples = 26493, free = 466954, casts = 8
* mode = profile, minimum cond freq = 0, pump delay = 45 sec
* autorun = no, ignore magnetic switch = no
* battery type = ALKALINE, battery cutoff =  7.5 volts
* pressure sensor = strain gauge, range = 508.0
* SBE 38 = no, Gas Tension Device = no
* Ext Volt 0 = yes, Ext Volt 1 = no, Ext Volt 2 = yes, Ext Volt 3 = yes
* echo commands = yes
* output format = raw HEX

* S>
*
* SeacatPlus V 1.4D  SERIAL NO. 4708    28 Aug 2018  13:35:49
* temperature:  16-jan-18
*     TA0 = 1.239424e-03
*     TA1 = 2.605655e-04
*     TA2 = 3.391093e-07
*     TA3 = 1.381880e-07
*     TOFFSET = 0.000000e+00
* conductivity:  16-jan-18
*     G = -1.038141e+00
*     H = 1.290503e-01
*     I = -1.816061e-04
*     J = 3.041159e-05
*     CF0 = 2.839489e+03
*     CPCOR = -9.570000e-08
*     CTCOR = 3.250000e-06
*     CSLOPE = 1.000000e+00
* pressure S/N = 6483, range = 508 psia:  2-jan-18
*     PA0 = 1.360246e-01
*     PA1 = 1.548408e-03
*     PA2 = 6.812038e-12
*     PTCA0 = 5.248322e+05
*     PTCA1 = 7.011187e+00
*     PTCA2 = -1.372152e-01
*     PTCB0 = 2.509413e+01
*     PTCB1 = 6.250000e-04
*     PTCB2 = 0.000000e+00
*     PTEMPA0 = -7.462920e+01
*     PTEMPA1 = 4.894346e+01
*     PTEMPA2 = -2.215415e-01
*     POFFSET = 0.000000e+00
* volt 0: offset = -4.637579e-02, slope = 1.248669e+00
* volt 1: offset = -4.611579e-02, slope = 1.249857e+00
* volt 2: offset = -4.590105e-02, slope = 1.249168e+00
* volt 3: offset = -4.639368e-02, slope = 1.248855e+00
*     EXTFREQSF = 1.000011e+00
* dh
* cast   8 27 Aug 2018 18:05:39 samples 23653 to 26493, avg = 1, stop = mag switch

* S>
# nquan = 11
# nvalues = 1445                                  
# units = specified
# name 0 = depFM: Depth [fresh water, m]
# name 1 = tv290C: Temperature [ITS-90, deg C]
# name 2 = sbeox0Mg/L: Oxygen, SBE 43 [mg/l]
# name 3 = sbeox0PS: Oxygen, SBE 43 [% saturation]
# name 4 = specc: Specific Conductance [uS/cm]
# name 5 = c0uS/cm: Conductivity [uS/cm]
# name 6 = sal00: Salinity, Practical [PSU]
# name 7 = obsscufa: OBS, Turner SCUFA [NTU]
# name 8 = flScufa: Fluorescence, Turner SCUFA [ug/L]
# name 9 = f1: Frequency 1
# name 10 = flag:  0.000e+00
# span 0 =     -0.667,     97.154                 
# span 1 =     4.0549,    17.5029                 
# span 2 =     6.7586,    10.9382                 
# span 3 =     70.409,    106.847                 
# span 4 =      2.663,    185.426                 
# span 5 =   2.165779, 107.754734                 
# span 6 =     0.0084,     0.0826                 
# span 7 =     0.2533,     0.7416                 
# span 8 =     1.0523,     1.7237                 
# span 9 =   2839.551,   2853.953                 
# span 10 = 0.0000e+00, 0.0000e+00                
# interval = seconds: 0.25
# start_time = Aug 27 2018 18:05:39 [Instrument's time stamp, header]
# bad_flag = -9.990e-29
# <Sensors count="6" >
#   <sensor Channel="1" >
#     <!-- Count, Temperature -->
#     <TemperatureSensor SensorID="58" >
#       <SerialNumber>4708</SerialNumber>
#       <CalibrationDate>16-Jan-18</CalibrationDate>
#       <A0>1.23942445e-003</A0>
#       <A1>2.60565509e-004</A1>
#       <A2>3.39109318e-007</A2>
#       <A3>1.38188049e-007</A3>
#       <Slope>1.00000000</Slope>
#       <Offset>0.0000</Offset>
#     </TemperatureSensor>
#   </sensor>
#   <sensor Channel="2" >
#     <!-- Frequency 0, Conductivity -->
#     <ConductivitySensor SensorID="3" >
#       <SerialNumber>4708</SerialNumber>
#       <CalibrationDate>16-Jan-18</CalibrationDate>
#       <UseG_J>1</UseG_J>
#       <!-- Cell const and series R are applicable only for wide range sensors. -->
#       <SeriesR>0.0000</SeriesR>
#       <CellConst>2000.0000</CellConst>
#       <ConductivityType>0</ConductivityType>
#       <Coefficients equation="0" >
#         <A>0.00000000e+000</A>
#         <B>0.00000000e+000</B>
#         <C>0.00000000e+000</C>
#         <D>0.00000000e+000</D>
#         <M>0.0</M>
#         <CPcor>-9.57000000e-008</CPcor>
#       </Coefficients>
#       <Coefficients equation="1" >
#         <G>-1.03814148e+000</G>
#         <H>1.29050304e-001</H>
#         <I>-1.81606081e-004</I>
#         <J>3.04115917e-005</J>
#         <CPcor>-9.57000000e-008</CPcor>
#         <CTcor>3.2500e-006</CTcor>
#         <!-- WBOTC not applicable unless ConductivityType = 1. -->
#         <WBOTC>0.00000000e+000</WBOTC>
#       </Coefficients>
#       <Slope>1.00000000</Slope>
#       <Offset>0.00000</Offset>
#     </ConductivitySensor>
#   </sensor>
#   <sensor Channel="3" >
#     <!-- Count, Pressure, Strain Gauge -->
#     <PressureSensor SensorID="46" >
#       <SerialNumber>4708</SerialNumber>
#       <CalibrationDate>2-Jan-18 </CalibrationDate>
#       <PA0>1.36024568e-001</PA0>
#       <PA1>1.54840836e-003</PA1>
#       <PA2>6.81203704e-012</PA2>
#       <PTEMPA0>-7.46292029e+001</PTEMPA0>
#       <PTEMPA1>4.89434635e+001</PTEMPA1>
#       <PTEMPA2>-2.21541542e-001</PTEMPA2>
#       <PTCA0>5.24832140e+005</PTCA0>
#       <PTCA1>7.01118705e+000</PTCA1>
#       <PTCA2>-1.37215194e-001</PTCA2>
#       <PTCB0>2.50941250e+001</PTCB0>
#       <PTCB1>6.25000000e-004</PTCB1>
#       <PTCB2>0.00000000e+000</PTCB2>
#       <Offset>0.000000</Offset>
#     </PressureSensor>
#   </sensor>
#   <sensor Channel="4" >
#     <!-- A/D voltage 0, Oxygen, SBE 43 -->
#     <OxygenSensor SensorID="38" >
#       <SerialNumber>0740</SerialNumber>
#       <CalibrationDate>13-Jan-18</CalibrationDate>
#       <Use2007Equation>1</Use2007Equation>
#       <CalibrationCoefficients equation="0" >
#         <!-- Coefficients for Owens-Millard equation. -->
#         <Boc>0.0000</Boc>
#         <Soc>0.0000e+000</Soc>
#         <offset>0.0000</offset>
#         <Pcor>0.00e+000</Pcor>
#         <Tcor>0.0000</Tcor>
#         <Tau>0.0</Tau>
#       </CalibrationCoefficients>
#       <CalibrationCoefficients equation="1" >
#         <!-- Coefficients for Sea-Bird equation - SBE calibration in 2007 and later. -->
#         <Soc>4.1541e-001</Soc>
#         <offset>-0.4774</offset>
#         <A>-4.1997e-003</A>
#         <B> 1.9152e-004</B>
#         <C>-2.1990e-006</C>
#         <D0> 2.5826e+000</D0>
#         <D1> 1.92634e-004</D1>
#         <D2>-4.64803e-002</D2>
#         <E> 3.6000e-002</E>
#         <Tau20> 0.9800</Tau20>
#         <H1>-3.3000e-002</H1>
#         <H2> 5.0000e+003</H2>
#         <H3> 1.4500e+003</H3>
#       </CalibrationCoefficients>
#     </OxygenSensor>
#   </sensor>
#   <sensor Channel="5" >
#     <!-- A/D voltage 1, Fluorometer, Turner SCUFA -->
#     <FluoroTurnerSCUFA_Sensor SensorID="17" >
#       <SerialNumber>0640</SerialNumber>
#       <CalibrationDate>11-Jan-2005</CalibrationDate>
#       <B>0.00000000e+000</B>
#       <MX>1.00000000e+000</MX>
#       <MY>0.00000000e+000</MY>
#       <Units>4</Units>
#       <ScaleFactor>1.60000000e+001</ScaleFactor>
#       <Offset>0.00000000e+000</Offset>
#     </FluoroTurnerSCUFA_Sensor>
#   </sensor>
#   <sensor Channel="6" >
#     <!-- A/D voltage 2, OBS, Turner SCUFA -->
#     <OBS_TurnerSCUFA_Sensor SensorID="35" >
#       <SerialNumber>0640</SerialNumber>
#       <CalibrationDate>11-Jan-2005</CalibrationDate>
#       <ScaleFactor>4.00000000e+001</ScaleFactor>
#       <Offset>0.00000000e+000</Offset>
#     </OBS_TurnerSCUFA_Sensor>
#   </sensor>
# </Sensors>
# datcnv_date = Aug 28 2018 14:57:46, 7.23.2 [datcnv_vars = 10]
# datcnv_in = C:\Users\FWCP_NRP\Documents\Seabird\Data\Kootenay\2018\KL_27Aug2018\KL_27Aug2018008.hex C:\Users\FWCP_NRP\Documents\Seabird\Configuration File\SBE19plus_4708_2018.xmlcon
# datcnv_skipover = 0
# datcnv_ox_hysteresis_correction = yes
# datcnv_ox_tau_correction = yes
# file_type = ascii
*END*
     -0.656    15.6633     9.5732     96.299      2.698   2.194344     0.0084     0.5188     1.5039   2839.555  0.000e+00
     -0.648    15.6636     9.5735     96.303      2.733   2.222908     0.0084     0.5219     1.5076   2839.559  0.000e+00
     -0.645    15.6642     9.5755     96.324      2.733   2.222908     0.0084     0.6836     1.7212   2839.559  0.000e+00
     -0.643    15.6658     9.5744     96.316      2.733   2.222908     0.0084     0.6775     1.7200   2839.559  0.000e+00
     -0.647    15.6669     9.5750     96.325      2.663   2.165779     0.0084     0.6867     1.7200   2839.551  0.000e+00
     -0.653    15.6668     9.5759     96.334      2.838   2.308601     0.0084     0.6775     1.7188   2839.570  0.000e+00
     -0.658    15.6670     9.5720     96.295      3.260   2.651377     0.0085     0.6928     1.7188   2839.617  0.000e+00
     -0.661    15.6700     9.5742     96.324      5.015   4.079672     0.0090     0.6897     1.7139   2839.813  0.000e+00
     -0.667    15.6798     9.5718     96.320      4.909   3.993972     0.0090     0.6867     1.7212   2839.801  0.000e+00
     -0.665    15.6880     9.5695     96.313      5.013   4.079672     0.0091     0.6775     1.7237   2839.813  0.000e+00
     -0.656    15.6912     9.5680     96.306     10.629   8.650877     0.0110     0.6775     1.7212   2840.438  0.000e+00
     -0.652    15.7761     9.5525     96.330     33.739  27.517741     0.0202     0.6775     1.7139   2843.016  0.000e+00
     -0.662    16.2113     9.4649     96.326      9.386   7.736542     0.0107     0.6836     1.7188   2840.313  0.000e+00
     -0.659    16.5271     9.4030     96.336      7.801   6.479411     0.0103     0.6867     1.7237   2840.141  0.000e+00
     -0.660    16.6270     9.3847     96.350      6.993   5.822307     0.0101     0.6775     1.7151   2840.051  0.000e+00
     -0.635    16.6699     9.3760     96.349     13.979  11.651241     0.0126     0.6897     1.7224   2840.848  0.000e+00
     -0.574    16.8441     9.3418     96.359     59.100  49.464693     0.0315     0.6775     1.7224   2846.012  0.000e+00
     -0.521    17.0182     9.3055     96.344     91.237  76.680187     0.0458     0.6744     1.7212   2849.723  0.000e+00
     -0.497    17.1442     9.2805     96.344    121.113 102.094213     0.0594     0.7416     1.5064   2853.184  0.000e+00
     -0.489    17.2306     9.2591     96.295    120.797 102.036781     0.0593     0.7385     1.5076   2853.176  0.000e+00
     -0.453    17.2864     9.2503     96.315    120.807 102.180271     0.0593     0.7324     1.5039   2853.195  0.000e+00
     -0.395    17.3241     9.2387     96.270    120.700 102.180259     0.0593     0.7385     1.5088   2853.195  0.000e+00
     -0.332    17.3482     9.2296     96.224    120.631 102.180251     0.0593     0.3296     1.3416   2853.195  0.000e+00
     -0.286    17.3711     9.2188     96.157    120.566 102.180244     0.0592     0.3174     1.3404   2853.195  0.000e+00
     -0.240    17.3944     9.2093     96.104    120.567 102.237640     0.0592     0.3174     1.3428   2853.203  0.000e+00
     -0.212    17.4095     9.2135     96.178    120.457 102.180232     0.0592     0.3204     1.3452   2853.195  0.000e+00
     -0.232    17.4177     9.2289     96.355    120.264 102.036722     0.0591     0.3723     1.3428   2853.176  0.000e+00
     -0.253    17.4222     9.2549     96.635    120.319 102.094123     0.0591     0.3662     1.3440   2853.184  0.000e+00
     -0.257    17.4243     9.2844     96.947    119.704 101.577502     0.0589     0.3845     1.3391   2853.113  0.000e+00
     -0.228    17.4248     9.3179     97.298    119.601 101.491400     0.0588     0.3632     1.3452   2853.102  0.000e+00
     -0.134    17.4271     9.3977     98.137    120.407 102.180227     0.0592     0.3235     1.3404   2853.195  0.000e+00
     -0.016    17.4287     9.4322     98.500    120.301 102.094123     0.0591     0.3265     1.3452   2853.184  0.000e+00
      0.097    17.4318     9.3915     98.081    120.292 102.094123     0.0591     0.3235     1.3428   2853.184  0.000e+00
      0.195    17.4351     9.2898     97.025    120.215 102.036720     0.0591     0.3082     1.3428   2853.176  0.000e+00
      0.277    17.4376     9.1216     95.273    120.073 101.921915     0.0590     0.3235     1.3440   2853.160  0.000e+00
      0.328    17.4393     8.9110     93.077    120.068 101.921915     0.0590     0.3235     1.3416   2853.160  0.000e+00
      0.332    17.4379     8.6771     90.631    119.970 101.835812     0.0590     0.3174     1.3477   2853.148  0.000e+00
      0.298    17.4121     8.4436     88.146    120.043 101.835820     0.0590     0.3235     1.3452   2853.148  0.000e+00
      0.272    17.3812     8.2263     85.822    120.131 101.835830     0.0590     0.3204     1.3513   2853.148  0.000e+00
      0.267    17.3667     8.0421     83.875    120.375 102.008042     0.0591     0.3143     1.3574   2853.172  0.000e+00
      0.282    17.3781     7.9054     82.469    120.444 102.094143     0.0592     0.3265     1.3574   2853.184  0.000e+00
      0.318    17.3954     7.8181     81.588    120.497 102.180242     0.0592     0.3204     1.3538   2853.195  0.000e+00
      0.350    17.4102     7.7946     81.367    120.252 102.008028     0.0591     0.3082     1.3440   2853.172  0.000e+00
      0.367    17.4188     7.8282     81.732    120.126 101.921922     0.0590     0.3113     1.3440   2853.160  0.000e+00
      0.362    17.4239     7.9037     82.529    120.010 101.835817     0.0590     0.3174     1.3440   2853.148  0.000e+00
      0.336    17.4227     7.9726     83.247    119.912 101.749714     0.0589     0.3143     1.3416   2853.137  0.000e+00
      0.302    17.4158     8.0276     83.809    120.236 102.008026     0.0591     0.3052     1.3440   2853.172  0.000e+00
      0.278    17.4147     8.0579     84.124    120.340 102.094130     0.0591     0.3235     1.3391   2853.184  0.000e+00
      0.271    17.4194     8.0753     84.313    120.327 102.094129     0.0591     0.3204     1.3416   2853.184  0.000e+00
      0.286    17.4227     8.0779     84.346    120.419 102.180232     0.0592     0.3235     1.3465   2853.195  0.000e+00
      0.312    17.4245     8.0477     84.034    120.414 102.180232     0.0592     0.3082     1.3562   2853.195  0.000e+00
      0.340    17.4257     7.9972     83.509    120.411 102.180232     0.0592     0.3174     1.3562   2853.195  0.000e+00
      0.358    17.4237     7.9423     82.932    120.112 101.921920     0.0590     0.3174     1.3562   2853.160  0.000e+00
      0.359    17.4218     7.8881     82.363    120.117 101.921921     0.0590     0.3204     1.3550   2853.160  0.000e+00
      0.346    17.4203     7.8434     81.893    120.054 101.864519     0.0590     0.3143     1.3367   2853.152  0.000e+00
      0.330    17.4184     7.8219     81.666    120.431 102.180234     0.0592     0.3174     1.3416   2853.195  0.000e+00
      0.316    17.4199     7.8240     81.690    120.224 102.008025     0.0591     0.3235     1.3404   2853.172  0.000e+00
      0.311    17.4254     7.8418     81.886    120.310 102.094127     0.0591     0.3296     1.3428   2853.184  0.000e+00
      0.313    17.4288     7.8751     82.239    120.402 102.180231     0.0592     0.3204     1.3404   2853.195  0.000e+00
      0.311    17.4287     7.9033     82.534    120.402 102.180231     0.0592     0.3235     1.3404   2853.195  0.000e+00
      0.311    17.4264     7.9020     82.516    120.307 102.094127     0.0591     0.3235     1.3465   2853.184  0.000e+00
      0.308    17.4243     7.8754     82.235    120.313 102.094128     0.0591     0.3174     1.3428   2853.184  0.000e+00
      0.308    17.4256     7.8225     81.685    120.310 102.094127     0.0591     0.3235     1.3245   2853.184  0.000e+00
      0.316    17.4304     7.7655     81.097    120.296 102.094126     0.0591     0.3296     1.3245   2853.184  0.000e+00
      0.329    17.4357     7.7431     80.872    120.382 102.180228     0.0592     0.3357     1.3245   2853.195  0.000e+00
      0.338    17.4398     7.7335     80.779    120.269 102.094123     0.0591     0.3082     1.3208   2853.184  0.000e+00
      0.340    17.4394     7.7530     80.982    120.271 102.094123     0.0591     0.3174     1.3562   2853.184  0.000e+00
      0.344    17.4366     7.7661     81.114    120.278 102.094124     0.0591     0.3143     1.3550   2853.184  0.000e+00
      0.340    17.4315     7.7602     81.044    120.090 101.921917     0.0590     0.3204     1.3599   2853.160  0.000e+00
      0.324    17.4255     7.7486     80.913    120.208 102.008023     0.0591     0.3174     1.3562   2853.172  0.000e+00
      0.306    17.4234     7.7172     80.582    120.214 102.008024     0.0591     0.3174     1.3782   2853.172  0.000e+00
      0.286    17.4247     7.6830     80.226    120.312 102.094127     0.0591     0.3204     1.3794   2853.184  0.000e+00
      0.280    17.4303     7.6713     80.114    120.398 102.180230     0.0592     0.3143     1.3758   2853.195  0.000e+00
      0.285    17.4368     7.6919     80.340    120.379 102.180228     0.0592     0.3174     1.3770   2853.195  0.000e+00
      0.305    17.4377     7.7387     80.830    120.275 102.094123     0.0591     0.3143     1.3574   2853.184  0.000e+00
      0.335    17.4365     7.7905     81.369    120.279 102.094124     0.0591     0.3265     1.3611   2853.184  0.000e+00
      0.354    17.4344     7.8116     81.585    120.183 102.008020     0.0591     0.3174     1.3538   2853.172  0.000e+00
      0.357    17.4303     7.8050     81.509    119.992 101.835815     0.0590     0.3143     1.3587   2853.148  0.000e+00
      0.336    17.4320     7.7671     81.117    119.886 101.749711     0.0589     0.3204     1.3428   2853.137  0.000e+00
      0.304    17.4295     7.7017     80.429    120.096 101.921918     0.0590     0.3204     1.3428   2853.160  0.000e+00
      0.270    17.4209     7.6099     79.456    120.019 101.835817     0.0590     0.3204     1.3477   2853.148  0.000e+00
      0.249    17.4134     7.5139     78.442    120.277 102.036728     0.0591     0.3265     1.3440   2853.176  0.000e+00
      0.248    17.4111     7.4408     77.675    120.452 102.180236     0.0592     0.3235     1.3770   2853.195  0.000e+00
      0.269    17.4176     7.4242     77.512    120.434 102.180234     0.0592     0.3174     1.3758   2853.195  0.000e+00
      0.296    17.4233     7.4506     77.797    120.316 102.094128     0.0591     0.3204     1.3782   2853.184  0.000e+00
      0.311    17.4254     7.4893     78.205    120.006 101.835816     0.0590     0.3204     1.3794   2853.148  0.000e+00
      0.304    17.4278     7.5235     78.566    119.999 101.835815     0.0590     0.3174     1.3538   2853.148  0.000e+00
      0.280    17.4130     7.5435     78.751    120.041 101.835820     0.0590     0.3235     1.3574   2853.148  0.000e+00
      0.236    17.3753     7.5564     78.824    120.283 101.950636     0.0591     0.3235     1.3538   2853.164  0.000e+00
      0.206    17.3508     7.5850     79.082    120.420 102.008047     0.0592     0.3204     1.3562   2853.172  0.000e+00
      0.211    17.3458     7.6595     79.851    120.435 102.008048     0.0592     0.3265     1.3465   2853.172  0.000e+00
      0.239    17.3628     7.7680     81.010    120.488 102.094147     0.0592     0.3235     1.3452   2853.184  0.000e+00
      0.279    17.3833     7.9164     82.592    120.430 102.094141     0.0592     0.3204     1.3428   2853.184  0.000e+00
      0.317    17.3964     8.0851     84.375    120.189 101.921929     0.0591     0.3204     1.3416   2853.160  0.000e+00
      0.340    17.4028     8.2307     85.907    120.070 101.835823     0.0590     0.3143     1.3550   2853.148  0.000e+00
      0.342    17.4027     8.3172     86.809    120.036 101.807122     0.0590     0.3143     1.3599   2853.145  0.000e+00
      0.313    17.3778     8.3310     86.908    120.140 101.835831     0.0590     0.3113     1.3587   2853.148  0.000e+00
      0.278    17.3519     8.2937     86.473    120.214 101.835840     0.0591     0.3174     1.3599   2853.148  0.000e+00
      0.246    17.3392     8.2152     85.632    120.250 101.835844     0.0591     0.3204     1.3550   2853.148  0.000e+00
      0.229    17.3379     8.1251     84.690    120.356 101.921947     0.0591     0.3235     1.3562   2853.160  0.000e+00
      0.227    17.3439     8.0234     83.641    120.440 102.008049     0.0592     0.3204     1.3550   2853.172  0.000e+00
      0.243    17.3511     7.9252     82.630    120.419 102.008047     0.0592     0.3296     1.3574   2853.172  0.000e+00
      0.274    17.3592     7.8307     81.657    120.329 101.950642     0.0591     0.3296     1.3574   2853.164  0.000e+00
      0.309    17.3641     7.7473     80.797    120.281 101.921939     0.0591     0.3235     1.3574   2853.160  0.000e+00
      0.335    17.3634     7.6597     79.881    120.181 101.835836     0.0591     0.3204     1.3562   2853.148  0.000e+00
      0.346    17.3640     7.5674     78.920    120.180 101.835836     0.0591     0.3174     1.3538   2853.148  0.000e+00
      0.335    17.3583     7.4725     77.921    120.196 101.835838     0.0591     0.3235     1.3245   2853.148  0.000e+00
      0.301    17.3412     7.3875     77.007    120.143 101.749740     0.0590     0.3052     1.3184   2853.137  0.000e+00
      0.261    17.3213     7.3284     76.360    120.199 101.749747     0.0590     0.3174     1.3184   2853.137  0.000e+00
      0.224    17.3064     7.2901     75.937    120.377 101.864555     0.0591     0.3143     1.3208   2853.152  0.000e+00
      0.207    17.2974     7.2821     75.840    120.471 101.921961     0.0592     0.3174     1.3001   2853.160  0.000e+00
      0.221    17.3015     7.3189     76.229    120.459 101.921959     0.0592     0.3113     1.3013   2853.160  0.000e+00
      0.262    17.3181     7.3838     76.932    120.412 101.921954     0.0591     0.3174     1.3001   2853.160  0.000e+00
      0.306    17.3336     7.4490     77.636    120.266 101.835846     0.0591     0.3143     1.3013   2853.148  0.000e+00
      0.335    17.3407     7.4961     78.139    120.246 101.835844     0.0591     0.3082     1.3428   2853.148  0.000e+00
      0.344    17.3466     7.5209     78.407    120.229 101.835842     0.0591     0.3235     1.3416   2853.148  0.000e+00
      0.332    17.3421     7.5058     78.242    120.106 101.721039     0.0590     0.3235     1.3440   2853.133  0.000e+00
      0.301    17.3211     7.4812     77.951    120.302 101.835850     0.0591     0.3204     1.3391   2853.148  0.000e+00
      0.270    17.3024     7.4688     77.792    120.355 101.835856     0.0591     0.3174     1.3526   2853.148  0.000e+00
      0.249    17.2920     7.4848     77.942    120.384 101.835859     0.0591     0.3174     1.3562   2853.148  0.000e+00
      0.244    17.2899     7.5149     78.252    120.390 101.835860     0.0591     0.3265     1.3587   2853.148  0.000e+00
      0.256    17.2948     7.5649     78.780    120.376 101.835858     0.0591     0.3174     1.3574   2853.148  0.000e+00
      0.273    17.3003     7.6191     79.354    120.327 101.807156     0.0591     0.3143     1.3404   2853.145  0.000e+00
      0.288    17.3047     7.6709     79.901    120.246 101.749752     0.0591     0.3143     1.3404   2853.137  0.000e+00
      0.297    17.3117     7.7126     80.347    120.227 101.749750     0.0591     0.3174     1.3452   2853.137  0.000e+00
      0.296    17.3108     7.7449     80.682    120.229 101.749750     0.0591     0.3204     1.3391   2853.137  0.000e+00
      0.294    17.3041     7.7650     80.880    120.146 101.663650     0.0590     0.3174     1.3233   2853.125  0.000e+00
      0.291    17.2976     7.7656     80.875    120.267 101.749755     0.0591     0.3265     1.3220   2853.137  0.000e+00
      0.285    17.2950     7.7441     80.647    120.274 101.749756     0.0591     0.3174     1.3208   2853.137  0.000e+00
      0.287    17.2948     7.7095     80.286    120.241 101.721055     0.0591     0.3143     1.3208   2853.133  0.000e+00
      0.287    17.2944     7.6660     79.833    120.276 101.749756     0.0591     0.3326     1.3526   2853.137  0.000e+00
      0.285    17.2944     7.6135     79.286    120.276 101.749756     0.0591     0.3113     1.3550   2853.137  0.000e+00
      0.283    17.2986     7.5488     78.619    120.264 101.749754     0.0591     0.3143     1.3611   2853.137  0.000e+00
      0.282    17.2986     7.4694     77.792    120.264 101.749754     0.0591     0.3204     1.3599   2853.137  0.000e+00
      0.284    17.2940     7.3908     76.966    120.175 101.663653     0.0590     0.3204     1.3501   2853.125  0.000e+00
      0.282    17.2902     7.3094     76.112    120.288 101.749757     0.0591     0.3021     1.3538   2853.137  0.000e+00
      0.279    17.2861     7.2355     75.337    120.265 101.721057     0.0591     0.3174     1.3562   2853.133  0.000e+00
      0.268    17.2810     7.1631     74.574    120.212 101.663657     0.0590     0.3296     1.3635   2853.125  0.000e+00
      0.262    17.2764     7.0965     73.875    120.327 101.749761     0.0591     0.3265     1.3599   2853.137  0.000e+00
      0.267    17.2735     7.0342     73.222    120.335 101.749762     0.0591     0.3265     1.3538   2853.137  0.000e+00
      0.284    17.2727     6.9851     72.709    120.337 101.749763     0.0591     0.3265     1.3587   2853.137  0.000e+00
      0.306    17.2755     6.9551     72.401    120.431 101.835865     0.0591     0.3235     1.3562   2853.148  0.000e+00
      0.324    17.2786     6.9493     72.345    120.219 101.663659     0.0590     0.3265     1.3440   2853.125  0.000e+00
      0.325    17.2825     6.9582     72.444    120.276 101.721059     0.0591     0.3265     1.3440   2853.133  0.000e+00
      0.312    17.2803     6.9630     72.490    120.214 101.663658     0.0590     0.3235     1.3404   2853.125  0.000e+00
      0.282    17.2623     6.9727     72.564    120.265 101.663663     0.0591     0.3204     1.3477   2853.125  0.000e+00
      0.251    17.2457     7.0012     72.836    120.313 101.663669     0.0591     0.3174     1.3574   2853.125  0.000e+00
      0.234    17.2375     7.0842     73.686    120.336 101.663671     0.0591     0.3296     1.3538   2853.125  0.000e+00
      0.242    17.2381     7.2033     74.927    120.538 101.835877     0.0592     0.3174     1.3562   2853.148  0.000e+00
      0.261    17.2538     7.3349     76.321    120.391 101.749769     0.0591     0.3235     1.3550   2853.137  0.000e+00
      0.285    17.2750     7.4497     77.549    120.297 101.721061     0.0591     0.3265     1.3391   2853.133  0.000e+00
      0.303    17.2835     7.5354     78.455    120.307 101.749759     0.0591     0.3235     1.3465   2853.137  0.000e+00
      0.319    17.2858     7.5931     79.059    120.198 101.663656     0.0590     0.3204     1.3440   2853.125  0.000e+00
      0.322    17.2896     7.6086     79.227    120.187 101.663655     0.0590     0.3174     1.3440   2853.125  0.000e+00
      0.319    17.2895     7.5914     79.047    120.290 101.749758     0.0591     0.3082     1.3733   2853.137  0.000e+00
      0.301    17.2806     7.5340     78.436    120.213 101.663658     0.0590     0.3174     1.3806   2853.125  0.000e+00
      0.276    17.2698     7.4544     77.589    120.244 101.663661     0.0591     0.3235     1.3758   2853.125  0.000e+00
      0.256    17.2627     7.3694     76.693    120.264 101.663663     0.0591     0.3174     1.3782   2853.125  0.000e+00
      0.247    17.2612     7.2886     75.850    120.370 101.749766     0.0591     0.3235     1.3404   2853.137  0.000e+00
      0.248    17.2625     7.2260     75.201    120.367 101.749766     0.0591     0.3235     1.3440   2853.137  0.000e+00
      0.262    17.2695     7.1942     74.881    120.449 101.835867     0.0591     0.3204     1.3416   2853.148  0.000e+00
      0.279    17.2798     7.1912     74.865    120.216 101.663658     0.0590     0.3174     1.3452   2853.125  0.000e+00
      0.298    17.2847     7.2006     74.971    120.201 101.663656     0.0590     0.3143     1.3965   2853.125  0.000e+00
      0.313    17.2876     7.1902     74.867    120.193 101.663655     0.0590     0.3082     1.4014   2853.125  0.000e+00
      0.319    17.2907     7.1711     74.674    120.184 101.663654     0.0590     0.3082     1.3989   2853.125  0.000e+00
      0.311    17.2905     7.1410     74.360    120.185 101.663654     0.0590     0.3326     1.3965   2853.125  0.000e+00
      0.291    17.2827     7.0991     73.911    120.207 101.663657     0.0590     0.3296     1.4429   2853.125  0.000e+00
      0.268    17.2746     7.0452     73.337    120.230 101.663659     0.0590     0.3265     1.4417   2853.125  0.000e+00
      0.243    17.2700     6.9831     72.684    120.345 101.749763     0.0591     0.3204     1.4368   2853.137  0.000e+00
      0.232    17.2669     6.9182     72.004    120.354 101.749764     0.0591     0.3204     1.4405   2853.137  0.000e+00
      0.234    17.2666     6.8589     71.387    120.253 101.663662     0.0591     0.3235     1.3391   2853.125  0.000e+00
      0.255    17.2711     6.8112     70.897    120.410 101.807165     0.0591     0.3265     1.3452   2853.145  0.000e+00
      0.285    17.2873     6.7800     70.596    120.398 101.835861     0.0591     0.3235     1.3477   2853.148  0.000e+00
      0.321    17.3111     6.7686     70.512    120.330 101.835854     0.0591     0.3082     1.3452   2853.148  0.000e+00
      0.341    17.3244     6.7645     70.488    120.089 101.663644     0.0590     0.3082     1.3599   2853.125  0.000e+00
      0.341    17.3308     6.7662     70.515    120.172 101.749744     0.0590     0.3174     1.3550   2853.137  0.000e+00
      0.323    17.3325     6.7602     70.456    119.964 101.577538     0.0589     0.3204     1.3599   2853.113  0.000e+00
      0.289    17.3117     6.7586     70.409    120.125 101.663647     0.0590     0.3235     1.3574   2853.125  0.000e+00
      0.250    17.2876     6.7663     70.454    120.261 101.721057     0.0591     0.3265     1.3233   2853.133  0.000e+00
      0.226    17.2742     6.7821     70.599    120.435 101.835865     0.0591     0.3296     1.3220   2853.148  0.000e+00
      0.212    17.2709     6.8175     70.962    120.241 101.663660     0.0591     0.3174     1.3245   2853.125  0.000e+00
      0.221    17.2832     6.8833     71.666    121.088 102.409892     0.0594     0.3235     1.3196   2853.227  0.000e+00
      0.250    17.3401     7.0014     72.981    121.027 102.495979     0.0594     0.3235     1.3220   2853.238  0.000e+00
      0.288    17.4052     7.3121     76.322    120.740 102.409852     0.0593     0.3265     1.3184   2853.227  0.000e+00
      0.325    17.4455     7.8415     81.917    120.523 102.323733     0.0592     0.3235     1.3220   2853.215  0.000e+00
      0.348    17.4661     8.4465     88.275    120.668 102.495938     0.0593     0.3143     1.3220   2853.238  0.000e+00
      0.349    17.4768     9.0261     94.353    120.536 102.409829     0.0592     0.3204     1.3574   2853.227  0.000e+00
      0.322    17.4820     9.5210     99.537    120.521 102.409827     0.0592     0.3204     1.3599   2853.227  0.000e+00
      0.282    17.4846     9.8930    103.431    120.615 102.495931     0.0593     0.3204     1.3550   2853.238  0.000e+00
      0.243    17.4851    10.1284    105.893    120.614 102.495931     0.0593     0.3265     1.3538   2853.238  0.000e+00
      0.212    17.4853    10.2195    106.847    120.512 102.409825     0.0592     0.3204     1.3562   2853.227  0.000e+00
      0.206    17.4862    10.1760    106.394    120.611 102.495930     0.0593     0.3235     1.3587   2853.238  0.000e+00
      0.225    17.4872    10.0454    105.031    120.608 102.495930     0.0593     0.3174     1.3562   2853.238  0.000e+00
      0.261    17.4886     9.9123    103.642    120.604 102.495930     0.0593     0.3235     1.3550   2853.238  0.000e+00
      0.300    17.4913     9.7888    102.356    120.495 102.409823     0.0592     0.3235     1.4173   2853.227  0.000e+00
      0.332    17.4941     9.6875    101.303    120.588 102.495929     0.0593     0.3143     1.4185   2853.238  0.000e+00
      0.343    17.4959     9.6070    100.465    120.583 102.495928     0.0593     0.3174     1.4173   2853.238  0.000e+00
      0.336    17.4968     9.5436     99.804    120.580 102.495928     0.0593     0.3082     1.4173   2853.238  0.000e+00
      0.314    17.4975     9.4956     99.304    120.646 102.553331     0.0593     0.3204     1.3416   2853.246  0.000e+00
      0.287    17.4971     9.4644     98.976    120.479 102.409821     0.0592     0.3204     1.3452   2853.227  0.000e+00
      0.264    17.4955     9.4376     98.693    120.584 102.495928     0.0593     0.3204     1.3440   2853.238  0.000e+00
      0.245    17.4947     9.4141     98.445    120.485 102.409822     0.0592     0.3296     1.3404   2853.227  0.000e+00
      0.226    17.4948     9.3994     98.291    120.586 102.495927     0.0593     0.3204     1.3208   2853.238  0.000e+00
      0.220    17.4950     9.3930     98.226    120.485 102.409821     0.0592     0.3204     1.3269   2853.227  0.000e+00
      0.235    17.4946     9.3998     98.295    120.486 102.409822     0.0592     0.3174     1.3233   2853.227  0.000e+00
      0.263    17.4941     9.4053     98.352    120.487 102.409822     0.0592     0.3174     1.3220   2853.227  0.000e+00
      0.293    17.4945     9.4138     98.442    120.587 102.495928     0.0593     0.3235     1.3452   2853.238  0.000e+00
      0.320    17.4950     9.4240     98.549    120.484 102.409822     0.0592     0.3174     1.3440   2853.227  0.000e+00
      0.344    17.4957     9.4369     98.686    120.584 102.495928     0.0593     0.3204     1.3428   2853.238  0.000e+00
      0.355    17.4961     9.4492     98.815    120.583 102.495928     0.0593     0.3235     1.3391   2853.238  0.000e+00
      0.342    17.4962     9.4561     98.887    120.684 102.582034     0.0593     0.3204     1.3428   2853.250  0.000e+00
      0.295    17.4957     9.4570     98.895    120.584 102.495928     0.0593     0.3235     1.3428   2853.238  0.000e+00
      0.233    17.4953     9.4442     98.761    120.653 102.553331     0.0593     0.3204     1.3404   2853.246  0.000e+00
      0.178    17.4946     9.4317     98.629    120.486 102.409821     0.0592     0.3204     1.3416   2853.227  0.000e+00
      0.160    17.4941     9.4125     98.427    120.689 102.582033     0.0593     0.3265     1.3391   2853.250  0.000e+00
      0.190    17.4946     9.4006     98.304    120.486 102.409821     0.0592     0.3235     1.3452   2853.227  0.000e+00
      0.255    17.4946     9.3946     98.241    120.587 102.495928     0.0593     0.3235     1.3452   2853.238  0.000e+00
      0.322    17.4946     9.3929     98.223    120.587 102.495928     0.0593     0.3174     1.3416   2853.238  0.000e+00
      0.373    17.4943     9.3933     98.226    120.588 102.495929     0.0593     0.3235     1.3477   2853.238  0.000e+00
      0.401    17.4938     9.4035     98.332    120.488 102.409824     0.0592     0.3143     1.3452   2853.227  0.000e+00
      0.392    17.4944     9.4152     98.456    120.486 102.409823     0.0592     0.3174     1.3416   2853.227  0.000e+00
      0.344    17.4947     9.4224     98.532    120.587 102.495929     0.0593     0.3082     1.3465   2853.238  0.000e+00
      0.271    17.4947     9.4221     98.529    120.485 102.409822     0.0592     0.3204     1.3220   2853.227  0.000e+00
      0.194    17.4942     9.4180     98.485    120.588 102.495927     0.0593     0.3143     1.3245   2853.238  0.000e+00
      0.146    17.4950     9.4134     98.439    120.586 102.495927     0.0593     0.3174     1.3269   2853.238  0.000e+00
      0.144    17.4961     9.4088     98.392    120.481 102.409820     0.0592     0.3174     1.3233   2853.227  0.000e+00
      0.189    17.4971     9.4133     98.442    120.580 102.495926     0.0593     0.3204     1.3538   2853.238  0.000e+00
      0.259    17.4979     9.4172     98.484    120.577 102.495927     0.0593     0.3204     1.3587   2853.238  0.000e+00
      0.334    17.4980     9.4192     98.505    120.679 102.582034     0.0593     0.3265     1.3562   2853.250  0.000e+00
      0.388    17.4977     9.4252     98.567    120.578 102.495928     0.0593     0.3174     1.3526   2853.238  0.000e+00
      0.410    17.4981     9.4293     98.611    120.476 102.409822     0.0592     0.3326     1.3220   2853.227  0.000e+00
      0.396    17.4990     9.4284     98.604    120.574 102.495928     0.0593     0.3204     1.3245   2853.238  0.000e+00
      0.356    17.4993     9.4263     98.582    120.573 102.495927     0.0593     0.3235     1.3220   2853.238  0.000e+00
      0.301    17.4994     9.4157     98.471    120.573 102.495927     0.0593     0.3143     1.3220   2853.238  0.000e+00
      0.246    17.4992     9.4044     98.353    120.574 102.495926     0.0593     0.3235     1.3452   2853.238  0.000e+00
      0.201    17.4987     9.3919     98.221    120.474 102.409820     0.0592     0.3204     1.3391   2853.227  0.000e+00
      0.177    17.4987     9.3738     98.032    120.474 102.409820     0.0592     0.3326     1.3465   2853.227  0.000e+00
      0.178    17.4985     9.3552     97.837    120.576 102.495926     0.0593     0.3235     1.3416   2853.238  0.000e+00
      0.206    17.4987     9.3381     97.659    120.575 102.495926     0.0593     0.3265     1.3342   2853.238  0.000e+00
      0.252    17.4984     9.3337     97.612    120.475 102.409821     0.0592     0.3235     1.3416   2853.227  0.000e+00
      0.306    17.4980     9.3441     97.720    120.577 102.495927     0.0593     0.3143     1.3440   2853.238  0.000e+00
      0.357    17.4978     9.3642     97.930    120.476 102.409822     0.0592     0.3204     1.3404   2853.227  0.000e+00
      0.393    17.4974     9.3888     98.186    120.680 102.582034     0.0593     0.3113     1.3233   2853.250  0.000e+00
      0.396    17.4973     9.4127     98.435    120.579 102.495928     0.0593     0.3204     1.3196   2853.238  0.000e+00
      0.369    17.4968     9.4350     98.668    120.580 102.495928     0.0593     0.3174     1.3208   2853.238  0.000e+00
      0.314    17.4957     9.4520     98.843    120.482 102.409822     0.0592     0.3235     1.3208   2853.227  0.000e+00
      0.256    17.4950     9.4684     99.014    120.586 102.495928     0.0593     0.3174     1.3245   2853.238  0.000e+00
      0.201    17.4953     9.4703     99.034    120.585 102.495927     0.0593     0.3204     1.3245   2853.238  0.000e+00
      0.175    17.4952     9.4591     98.917    120.484 102.409821     0.0592     0.3113     1.3233   2853.227  0.000e+00
      0.176    17.4959     9.4452     98.773    120.380 102.323715     0.0592     0.3326     1.3208   2853.215  0.000e+00
      0.209    17.4965     9.4356     98.674    120.581 102.495927     0.0593     0.3174     1.3220   2853.238  0.000e+00
      0.261    17.4974     9.4287     98.603    120.579 102.495927     0.0593     0.3265     1.3245   2853.238  0.000e+00
      0.314    17.4986     9.4162     98.475    120.677 102.582033     0.0593     0.3143     1.3245   2853.250  0.000e+00
      0.362    17.4997     9.3998     98.306    120.572 102.495927     0.0593     0.3235     1.3220   2853.238  0.000e+00
      0.386    17.5004     9.3961     98.268    120.672 102.582033     0.0593     0.3113     1.3574   2853.250  0.000e+00
      0.387    17.5002     9.4057     98.369    120.672 102.582033     0.0593     0.3265     1.3562   2853.250  0.000e+00
      0.360    17.4994     9.4167     98.482    120.472 102.409821     0.0592     0.3296     1.3587   2853.227  0.000e+00
      0.314    17.4999     9.4196     98.513    120.572 102.495927     0.0593     0.3174     1.3550   2853.238  0.000e+00
      0.260    17.5003     9.4226     98.545    120.571 102.495926     0.0593     0.3235     1.3587   2853.238  0.000e+00
      0.213    17.5006     9.4293     98.617    120.570 102.495925     0.0593     0.3265     1.3587   2853.238  0.000e+00
      0.189    17.5002     9.4363     98.689    120.571 102.495925     0.0593     0.3204     1.3538   2853.238  0.000e+00
      0.194    17.4999     9.4353     98.677    120.470 102.409820     0.0592     0.3235     1.3574   2853.227  0.000e+00
      0.227    17.5000     9.4361     98.686    120.572 102.495926     0.0593     0.3082     1.3440   2853.238  0.000e+00
      0.269    17.5001     9.4279     98.600    120.470 102.409820     0.0592     0.3204     1.3452   2853.227  0.000e+00
      0.311    17.4998     9.4267     98.587    120.572 102.495927     0.0593     0.3204     1.3391   2853.238  0.000e+00
      0.339    17.4994     9.4269     98.588    120.573 102.495927     0.0593     0.3174     1.3452   2853.238  0.000e+00
      0.351    17.4999     9.4273     98.594    120.471 102.409821     0.0592     0.3265     1.3220   2853.227  0.000e+00
      0.350    17.4998     9.4240     98.559    120.572 102.495927     0.0593     0.3174     1.3196   2853.238  0.000e+00
      0.327    17.4993     9.4263     98.582    120.472 102.409821     0.0592     0.3174     1.3233   2853.227  0.000e+00
      0.298    17.4980     9.4278     98.595    120.577 102.495927     0.0593     0.3296     1.3233   2853.238  0.000e+00
      0.264    17.4976     9.4253     98.569    120.578 102.495927     0.0593     0.3174     1.3416   2853.238  0.000e+00
      0.233    17.4976     9.4240     98.554    120.477 102.409821     0.0592     0.3143     1.3428   2853.227  0.000e+00
      0.214    17.4981     9.4125     98.436    120.577 102.495926     0.0593     0.3113     1.3428   2853.238  0.000e+00
      0.213    17.4988     9.4046     98.354    120.676 102.582032     0.0593     0.3265     1.3452   2853.250  0.000e+00
      0.229    17.4999     9.4054     98.364    120.639 102.553330     0.0593     0.3235     1.3245   2853.246  0.000e+00
      0.258    17.5008     9.4090     98.404    120.670 102.582032     0.0593     0.3204     1.3196   2853.250  0.000e+00
      0.298    17.5016     9.4132     98.450    120.567 102.495926     0.0593     0.3235     1.3257   2853.238  0.000e+00
      0.330    17.5020     9.4130     98.449    120.566 102.495926     0.0593     0.3204     1.3233   2853.238  0.000e+00
      0.341    17.5023     9.4175     98.496    120.666 102.582032     0.0593     0.3296     1.3257   2853.250  0.000e+00
      0.335    17.5024     9.4321     98.650    120.565 102.495926     0.0593     0.3235     1.3184   2853.238  0.000e+00
      0.312    17.5024     9.4471     98.806    120.565 102.495926     0.0593     0.3174     1.3184   2853.238  0.000e+00
      0.279    17.5029     9.4532     98.871    120.563 102.495925     0.0593     0.3204     1.3208   2853.238  0.000e+00
      0.251    17.5027     9.4564     98.904    120.564 102.495925     0.0593     0.3113     1.3379   2853.238  0.000e+00
      0.234    17.5022     9.4565     98.904    120.565 102.495925     0.0593     0.3235     1.3404   2853.238  0.000e+00
      0.234    17.5018     9.4435     98.767    120.566 102.495925     0.0593     0.3235     1.3416   2853.238  0.000e+00
      0.247    17.5016     9.4263     98.587    120.567 102.495925     0.0593     0.3174     1.3452   2853.238  0.000e+00
      0.273    17.5010     9.4155     98.472    120.670 102.582032     0.0593     0.3174     1.3587   2853.250  0.000e+00
      0.303    17.5008     9.4086     98.399    120.569 102.495926     0.0593     0.3143     1.3574   2853.238  0.000e+00
      0.324    17.5008     9.4067     98.380    120.671 102.582033     0.0593     0.3235     1.3538   2853.250  0.000e+00
      0.334    17.5005     9.4085     98.398    120.469 102.409821     0.0592     0.3296     1.3562   2853.227  0.000e+00
      0.320    17.5001     9.4172     98.489    120.571 102.495927     0.0593     0.3235     1.3404   2853.238  0.000e+00
      0.285    17.4996     9.4283     98.603    120.471 102.409821     0.0592     0.3174     1.3452   2853.227  0.000e+00
      0.246    17.4993     9.4428     98.755    120.472 102.409820     0.0592     0.3204     1.3404   2853.227  0.000e+00
      0.221    17.4999     9.4480     98.810    120.572 102.495926     0.0593     0.3143     1.3465   2853.238  0.000e+00
      0.222    17.5005     9.4474     98.805    120.570 102.495925     0.0593     0.3174     1.3965   2853.238  0.000e+00
      0.249    17.5005     9.4367     98.694    120.672 102.582032     0.0593     0.3326     1.3941   2853.250  0.000e+00
      0.289    17.5003     9.4273     98.595    120.571 102.495926     0.0593     0.3235     1.3965   2853.238  0.000e+00
      0.332    17.5003     9.4177     98.494    120.571 102.495927     0.0593     0.3174     1.3989   2853.238  0.000e+00
      0.365    17.5006     9.4104     98.419    120.469 102.409821     0.0592     0.3174     1.3440   2853.227  0.000e+00
      0.374    17.5005     9.4103     98.417    120.672 102.582033     0.0593     0.3174     1.3477   2853.250  0.000e+00
      0.361    17.5001     9.4142     98.457    120.571 102.495927     0.0593     0.3235     1.3416   2853.238  0.000e+00
      0.319    17.4993     9.4202     98.519    120.573 102.495927     0.0593     0.3235     1.3391   2853.238  0.000e+00
      0.251    17.4994     9.4324     98.646    120.675 102.582032     0.0593     0.3174     1.3257   2853.250  0.000e+00
      0.188    17.4999     9.4407     98.734    120.673 102.582031     0.0593     0.3296     1.3245   2853.250  0.000e+00
      0.168    17.4992     9.4464     98.792    120.574 102.495925     0.0593     0.3235     1.3233   2853.238  0.000e+00
      0.202    17.4993     9.4414     98.740    120.472 102.409820     0.0592     0.3265     1.3257   2853.227  0.000e+00
      0.266    17.4996     9.4322     98.644    120.674 102.582032     0.0593     0.3204     1.3208   2853.250  0.000e+00
      0.349    17.4999     9.4267     98.588    120.572 102.495927     0.0593     0.3174     1.3220   2853.238  0.000e+00
      0.424    17.4996     9.4228     98.546    120.573 102.495928     0.0593     0.3204     1.3233   2853.238  0.000e+00
      0.454    17.4990     9.4157     98.471    120.473 102.409822     0.0592     0.3204     1.3233   2853.227  0.000e+00
      0.432    17.4983     9.4072     98.381    120.475 102.409822     0.0592     0.3235     1.3245   2853.227  0.000e+00
      0.366    17.4976     9.4023     98.328    120.578 102.495928     0.0593     0.3174     1.3208   2853.238  0.000e+00
      0.294    17.4973     9.4093     98.400    120.579 102.495927     0.0593     0.3265     1.3233   2853.238  0.000e+00
      0.237    17.4964     9.4223     98.535    120.582 102.495927     0.0593     0.3357     1.3220   2853.238  0.000e+00
      0.213    17.4954     9.4318     98.632    120.585 102.495927     0.0593     0.3204     1.3233   2853.238  0.000e+00
      0.236    17.4947     9.4334     98.647    120.485 102.409822     0.0592     0.3265     1.3233   2853.227  0.000e+00
      0.335    17.4941     9.4314     98.625    120.588 102.495929     0.0593     0.3204     1.3220   2853.238  0.000e+00
      0.473    17.4941     9.4336     98.648    120.588 102.495930     0.0593     0.3235     1.3257   2853.238  0.000e+00
      0.612    17.4955     9.4363     98.679    120.584 102.495931     0.0593     0.3204     1.3416   2853.238  0.000e+00
      0.722    17.4965     9.4352     98.670    120.581 102.495932     0.0593     0.3143     1.3440   2853.238  0.000e+00
      0.810    17.4974     9.4380     98.701    120.579 102.495932     0.0593     0.3204     1.3452   2853.238  0.000e+00
      0.878    17.4985     9.4366     98.688    120.576 102.495932     0.0593     0.3235     1.3391   2853.238  0.000e+00
      0.933    17.5002     9.4367     98.693    120.571 102.495932     0.0593     0.3174     1.3220   2853.238  0.000e+00
      0.999    17.5007     9.4392     98.720    120.570 102.495933     0.0593     0.3235     1.3257   2853.238  0.000e+00
      1.062    17.5007     9.4412     98.741    120.570 102.495933     0.0593     0.3113     1.3245   2853.238  0.000e+00
      1.135    17.5002     9.4434     98.762    120.571 102.495934     0.0593     0.3265     1.3196   2853.238  0.000e+00
      1.212    17.5001     9.4424     98.752    120.571 102.495935     0.0593     0.3204     1.3220   2853.238  0.000e+00
      1.304    17.5005     9.4412     98.740    120.570 102.495936     0.0593     0.3204     1.3196   2853.238  0.000e+00
      1.417    17.5008     9.4391     98.719    120.569 102.495937     0.0593     0.3082     1.3233   2853.238  0.000e+00
      1.542    17.5018     9.4428     98.760    120.566 102.495938     0.0593     0.3174     1.3172   2853.238  0.000e+00
      1.675    17.5017     9.4496     98.831    120.567 102.495939     0.0593     0.3265     1.3208   2853.238  0.000e+00
      1.809    17.5012     9.4564     98.901    120.669 102.582047     0.0593     0.3174     1.3172   2853.250  0.000e+00
      1.931    17.5015     9.4570     98.908    120.567 102.495942     0.0593     0.3082     1.3208   2853.238  0.000e+00
      2.035    17.5022     9.4616     98.958    120.565 102.495942     0.0593     0.3235     1.3257   2853.238  0.000e+00
      2.116    17.5025     9.4600     98.941    120.463 102.409837     0.0592     0.3082     1.3208   2853.227  0.000e+00
      2.184    17.5014     9.4542     98.879    120.635 102.553348     0.0593     0.3204     1.3245   2853.246  0.000e+00
      2.248    17.5008     9.4481     98.813    120.569 102.495945     0.0593     0.3174     1.3257   2853.238  0.000e+00
      2.319    17.5008     9.4433     98.763    120.569 102.495946     0.0593     0.3235     1.3220   2853.238  0.000e+00
      2.399    17.4996     9.4424     98.752    120.471 102.409841     0.0592     0.3174     1.3245   2853.227  0.000e+00
      2.499    17.4956     9.4415     98.734    120.483 102.409843     0.0592     0.3204     1.3220   2853.227  0.000e+00
      2.618    17.4859     9.4437     98.737    120.510 102.409848     0.0592     0.3174     1.3233   2853.227  0.000e+00
      2.750    17.4761     9.4412     98.691    120.538 102.409852     0.0592     0.3113     1.3233   2853.227  0.000e+00
      2.886    17.4700     9.4448     98.716    120.454 102.323750     0.0592     0.3082     1.3257   2853.215  0.000e+00
      3.011    17.4675     9.4499     98.764    120.360 102.237647     0.0592     0.3174     1.3220   2853.203  0.000e+00
      3.116    17.4665     9.4586     98.853    120.565 102.409859     0.0593     0.3235     1.3220   2853.227  0.000e+00
      3.205    17.4670     9.4697     98.969    120.361 102.237649     0.0592     0.3174     1.3208   2853.203  0.000e+00
      3.282    17.4658     9.4736     99.008    120.466 102.323755     0.0592     0.3235     1.3428   2853.215  0.000e+00
      3.354    17.4582     9.4728     98.984    120.386 102.237653     0.0592     0.3235     1.3404   2853.203  0.000e+00
      3.426    17.4485     9.4660     98.893    120.414 102.237657     0.0592     0.3265     1.3404   2853.203  0.000e+00
      3.501    17.4397     9.4545     98.755    120.270 102.094153     0.0591     0.3204     1.3465   2853.184  0.000e+00
      3.592    17.4311     9.4474     98.663    120.395 102.180261     0.0592     0.3235     1.3172   2853.195  0.000e+00
      3.689    17.4193     9.4415     98.578    120.429 102.180266     0.0592     0.3174     1.3245   2853.195  0.000e+00
      3.792    17.4062     9.4399     98.534    120.263 102.008063     0.0591     0.3204     1.3269   2853.172  0.000e+00
      3.898    17.3942     9.4397     98.508    120.297 102.008068     0.0591     0.3265     1.3257   2853.172  0.000e+00
      4.011    17.3758     9.4423     98.497    120.248 101.921971     0.0591     0.3235     1.3452   2853.160  0.000e+00
      4.122    17.3586     9.4493     98.534    120.297 101.921978     0.0591     0.3143     1.3477   2853.160  0.000e+00
      4.228    17.3450     9.4577     98.595    120.268 101.864581     0.0591     0.3174     1.3440   2853.152  0.000e+00
      4.327    17.3262     9.4658     98.641    120.287 101.835887     0.0591     0.3265     1.3428   2853.148  0.000e+00
      4.414    17.3093     9.4730     98.681    120.335 101.835893     0.0591     0.3265     1.3574   2853.148  0.000e+00
      4.499    17.2995     9.4806     98.740    120.363 101.835897     0.0591     0.3082     1.3538   2853.148  0.000e+00
      4.581    17.2932     9.4853     98.776    120.279 101.749797     0.0591     0.3143     1.3538   2853.137  0.000e+00
      4.670    17.2893     9.4957     98.877    120.290 101.749799     0.0591     0.3204     1.3550   2853.137  0.000e+00
      4.767    17.2849     9.5056     98.970    120.405 101.835905     0.0591     0.3235     1.3782   2853.148  0.000e+00
      4.873    17.2783     9.5087     98.989    120.390 101.807207     0.0591     0.3265     1.3770   2853.145  0.000e+00
      4.986    17.2720     9.5148     99.040    120.441 101.835911     0.0591     0.3235     1.3782   2853.148  0.000e+00
      5.095    17.2694     9.5193     99.081    120.653 102.008121     0.0592     0.3174     1.3733   2853.172  0.000e+00
      5.197    17.2671     9.5264     99.151    120.557 101.922018     0.0592     0.3265     1.3758   2853.160  0.000e+00
      5.291    17.2667     9.5279     99.165    120.558 101.922019     0.0592     0.3174     1.3745   2853.160  0.000e+00
      5.380    17.2669     9.5214     99.098    120.660 102.008124     0.0592     0.3174     1.3745   2853.172  0.000e+00
      5.461    17.2643     9.5142     99.018    120.565 101.922022     0.0592     0.3174     1.3770   2853.160  0.000e+00
      5.540    17.2620     9.5024     98.891    120.504 101.864621     0.0592     0.3296     1.3770   2853.152  0.000e+00
      5.612    17.2587     9.5007     98.866    120.479 101.835922     0.0592     0.3082     1.3782   2853.148  0.000e+00
      5.678    17.2579     9.4942     98.797    120.583 101.922026     0.0592     0.3235     1.3782   2853.160  0.000e+00
      5.748    17.2568     9.5028     98.883    120.688 102.008131     0.0592     0.3326     1.3758   2853.172  0.000e+00
      5.816    17.2552     9.5029     98.881    120.693 102.008132     0.0593     0.3235     1.3758   2853.172  0.000e+00
      5.896    17.2530     9.5074     98.924    120.699 102.008134     0.0593     0.3326     1.3770   2853.172  0.000e+00
      5.988    17.2505     9.5098     98.943    120.604 101.922031     0.0592     0.3235     1.3745   2853.160  0.000e+00
      6.094    17.2467     9.5114     98.952    120.649 101.950735     0.0592     0.3143     1.3745   2853.164  0.000e+00
      6.215    17.2431     9.5125     98.957    120.728 102.008140     0.0593     0.3204     1.3770   2853.172  0.000e+00
      6.345    17.2402     9.5172     98.999    120.634 101.922038     0.0592     0.3204     1.3745   2853.160  0.000e+00
      6.468    17.2395     9.5189     99.016    120.840 102.094248     0.0593     0.3174     1.3806   2853.184  0.000e+00
      6.575    17.2390     9.5237     99.064    120.739 102.008145     0.0593     0.3235     1.3794   2853.172  0.000e+00
      6.654    17.2392     9.5286     99.116    120.739 102.008145     0.0593     0.3204     1.4197   2853.172  0.000e+00
      6.701    17.2396     9.5328     99.161    120.636 101.922042     0.0592     0.3265     1.4209   2853.160  0.000e+00
      6.731    17.2393     9.5377     99.211    120.671 101.950744     0.0592     0.3235     1.4209   2853.164  0.000e+00
      6.758    17.2378     9.5361     99.191    120.845 102.094251     0.0593     0.3265     1.4197   2853.184  0.000e+00
      6.811    17.2351     9.5296     99.118    120.852 102.094253     0.0593     0.3204     1.3965   2853.184  0.000e+00
      6.901    17.2328     9.5223     99.038    120.655 101.922046     0.0592     0.3021     1.4038   2853.160  0.000e+00
      7.027    17.2287     9.5159     98.962    120.565 101.835945     0.0592     0.3204     1.3989   2853.148  0.000e+00
      7.182    17.2222     9.5111     98.899    120.686 101.922052     0.0592     0.3204     1.3989   2853.160  0.000e+00
      7.350    17.2169     9.5091     98.867    120.565 101.807251     0.0592     0.3204     1.3941   2853.145  0.000e+00
      7.497    17.2142     9.5090     98.861    120.810 102.008162     0.0593     0.3143     1.3916   2853.172  0.000e+00
      7.609    17.2118     9.4932     98.691    120.409 101.663750     0.0591     0.3204     1.3965   2853.125  0.000e+00
      7.687    17.2063     9.4879     98.626    120.527 101.749855     0.0592     0.3204     1.4014   2853.137  0.000e+00
      7.740    17.2005     9.4815     98.547    120.645 101.835961     0.0592     0.3204     1.3977   2853.148  0.000e+00
      7.777    17.1974     9.4704     98.425    120.552 101.749859     0.0592     0.3204     1.3977   2853.137  0.000e+00
      7.816    17.1961     9.4686     98.404    120.658 101.835963     0.0592     0.3235     1.4002   2853.148  0.000e+00
      7.878    17.1953     9.4726     98.443    120.524 101.721160     0.0592     0.3174     1.3953   2853.133  0.000e+00
      7.968    17.1939     9.4830     98.549    120.562 101.749862     0.0592     0.3082     1.4221   2853.137  0.000e+00
      8.079    17.1913     9.4978     98.698    120.570 101.749864     0.0592     0.3143     1.4197   2853.137  0.000e+00
      8.211    17.1886     9.5182     98.904    120.475 101.663763     0.0591     0.3174     1.4221   2853.125  0.000e+00
      8.354    17.1872     9.5385     99.112    120.684 101.835971     0.0592     0.3082     1.4197   2853.148  0.000e+00
      8.499    17.1862     9.5543     99.274    120.584 101.749870     0.0592     0.3357     1.4002   2853.137  0.000e+00
      8.641    17.1866     9.5634     99.369    120.583 101.749871     0.0592     0.3143     1.4014   2853.137  0.000e+00
      8.756    17.1857     9.5637     99.370    120.722 101.864677     0.0592     0.3174     1.3989   2853.152  0.000e+00
      8.845    17.1846     9.5541     99.268    120.793 101.922081     0.0593     0.3174     1.3989   2853.160  0.000e+00
      8.903    17.1842     9.5403     99.124    120.692 101.835978     0.0592     0.3082     1.4002   2853.148  0.000e+00
      8.938    17.1839     9.5321     99.038    120.693 101.835978     0.0592     0.3296     1.3989   2853.148  0.000e+00
      8.967    17.1840     9.5269     98.984    120.693 101.835978     0.0592     0.3204     1.3953   2853.148  0.000e+00
      9.010    17.1844     9.5289     99.006    120.590 101.749875     0.0592     0.3113     1.3953   2853.137  0.000e+00
      9.093    17.1841     9.5330     99.048    120.692 101.835980     0.0592     0.3235     1.3965   2853.148  0.000e+00
      9.220    17.1841     9.5356     99.076    120.658 101.807280     0.0592     0.3235     1.3977   2853.145  0.000e+00
      9.385    17.1845     9.5332     99.051    120.691 101.835982     0.0592     0.3113     1.3953   2853.148  0.000e+00
      9.566    17.1836     9.5315     99.031    120.592 101.749881     0.0592     0.3174     1.3989   2853.137  0.000e+00
      9.733    17.1831     9.5204     98.915    120.695 101.835986     0.0592     0.3235     1.4197   2853.148  0.000e+00
      9.864    17.1824     9.5078     98.783    120.697 101.835987     0.0592     0.3235     1.4197   2853.148  0.000e+00
      9.964    17.1728     9.5065     98.749    117.016  98.707801     0.0575     0.3235     1.4234   2852.723  0.000e+00
     10.034    16.9778     9.5324     98.616    114.723  96.326159     0.0564     0.3235     1.4173   2852.398  0.000e+00
     10.084    16.6510     9.5328     97.947    115.452  96.182794     0.0567     0.3204     1.3977   2852.379  0.000e+00
     10.124    16.4335     9.5045     97.211    115.850  96.010702     0.0568     0.3296     1.4002   2852.355  0.000e+00
     10.172    16.2955     9.4707     96.584    115.404  95.322119     0.0565     0.3235     1.3977   2852.262  0.000e+00
     10.236    16.1817     9.4624     96.267    114.817  94.576169     0.0562     0.3143     1.4038   2852.160  0.000e+00
     10.320    16.0531     9.4653     96.035    113.115  92.883491     0.0554     0.3235     1.4600   2851.930  0.000e+00
     10.439    15.8535     9.4830     95.807    112.720  92.108964     0.0552     0.3326     1.4612   2851.824  0.000e+00
     10.587    15.6420     9.4876     95.422    112.989  91.850839     0.0552     0.3235     1.4624   2851.789  0.000e+00
     10.757    15.4810     9.4974     95.192    113.049  91.535327     0.0552     0.3296     1.4649   2851.746  0.000e+00
     10.921    15.3445     9.5177     95.118    113.219  91.363247     0.0552     0.3235     1.4197   2851.723  0.000e+00
     11.061    15.2288     9.5568     95.271    113.544  91.363282     0.0554     0.3174     1.4209   2851.723  0.000e+00
     11.162    15.1447     9.5606     95.137    113.461  91.105127     0.0553     0.3174     1.4209   2851.688  0.000e+00
     11.221    15.0691     9.5753     95.128    113.782  91.191210     0.0554     0.3174     1.4209   2851.699  0.000e+00
     11.256    15.0132     9.5862     95.121    113.726  91.019107     0.0554     0.3082     1.4649   2851.676  0.000e+00
     11.281    14.9805     9.6042     95.233    113.927  91.105177     0.0555     0.3204     1.4624   2851.688  0.000e+00
     11.316    14.9565     9.6218     95.358    113.959  91.076497     0.0555     0.3174     1.4636   2851.684  0.000e+00
     11.382    14.9372     9.6442     95.540    113.943  91.019130     0.0554     0.3174     1.4636   2851.676  0.000e+00
     11.489    14.9150     9.6689     95.739    113.575  90.674903     0.0553     0.3235     1.4209   2851.629  0.000e+00
     11.626    14.8458     9.6900     95.804    113.448  90.416751     0.0552     0.3143     1.4197   2851.594  0.000e+00
     11.786    14.7221     9.7087     95.732    113.405  90.101248     0.0551     0.3265     1.4148   2851.551  0.000e+00
     11.940    14.5852     9.7070     95.432    113.688  90.015234     0.0552     0.3204     1.4209   2851.539  0.000e+00
     12.072    14.4747     9.6890     95.026    114.006  90.015268     0.0553     0.3174     1.4197   2851.539  0.000e+00
     12.171    14.3930     9.6610     94.582    113.952  89.785812     0.0553     0.3174     1.4209   2851.508  0.000e+00
     12.239    14.3324     9.6315     94.169    114.310  89.929255     0.0554     0.3265     1.4197   2851.527  0.000e+00
     12.285    14.2922     9.6048     93.826    114.317  89.843212     0.0554     0.3235     1.4197   2851.516  0.000e+00
     12.328    14.2701     9.5895     93.631    114.381  89.843219     0.0554     0.3113     1.3965   2851.516  0.000e+00
     12.379    14.2541     9.5948     93.650    114.538  89.929279     0.0555     0.3082     1.4002   2851.527  0.000e+00
     12.459    14.2401     9.6090     93.760    114.140  89.585066     0.0553     0.3174     1.4014   2851.480  0.000e+00
     12.559    14.1873     9.6401     93.955    114.404  89.671136     0.0554     0.3296     1.4026   2851.492  0.000e+00
     12.674    14.0946     9.6645     94.002    114.785  89.757218     0.0555     0.3113     1.3782   2851.504  0.000e+00
     12.805    13.9693     9.6848     93.940    115.117  89.728571     0.0556     0.3174     1.3770   2851.500  0.000e+00
     12.940    13.8537     9.6935     93.786    115.275  89.585182     0.0557     0.3143     1.3770   2851.480  0.000e+00
     13.065    13.7432     9.6946     93.568    115.049  89.154950     0.0555     0.3143     1.3758   2851.422  0.000e+00
     13.167    13.6379     9.6812     93.222    114.064  88.151062     0.0550     0.3204     1.3526   2851.285  0.000e+00
     13.241    13.5449     9.6640     92.865    114.227  88.065042     0.0551     0.3235     1.3587   2851.273  0.000e+00
     13.288    13.4791     9.6472     92.569    114.423  88.065061     0.0552     0.3235     1.3550   2851.273  0.000e+00
     13.320    13.4396     9.6264     92.288    114.428  87.979025     0.0551     0.3204     1.3574   2851.262  0.000e+00
     13.359    13.4078     9.6137     92.102    114.523  87.979034     0.0552     0.3265     1.3245   2851.262  0.000e+00
     13.427    13.3839     9.6021     91.941    114.595  87.979042     0.0552     0.3052     1.3245   2851.262  0.000e+00
     13.534    13.3544     9.5982     91.844    114.795  88.065099     0.0553     0.3174     1.3220   2851.273  0.000e+00
     13.670    13.2828     9.6056     91.769    115.234  88.237217     0.0554     0.3235     1.3245   2851.297  0.000e+00
     13.813    13.2090     9.6089     91.650    115.795  88.495386     0.0557     0.2747     1.3758   2851.332  0.000e+00
     13.948    13.1499     9.6048     91.491    116.200  88.667505     0.0558     0.2655     1.3770   2851.355  0.000e+00
     14.057    13.1079     9.5936     91.298    116.441  88.753568     0.0559     0.2625     1.3745   2851.367  0.000e+00
     14.135    13.0663     9.5937     91.215    117.548  89.499368     0.0564     0.2716     1.3770   2851.469  0.000e+00
     14.188    13.0190     9.5940     91.121    117.920  89.671490     0.0566     0.2625     1.4405   2851.492  0.000e+00
     14.230    12.9878     9.5858     90.980    117.904  89.585445     0.0566     0.2655     1.4405   2851.480  0.000e+00
     14.280    12.9701     9.5779     90.869    117.959  89.585451     0.0566     0.2655     1.4441   2851.480  0.000e+00
     14.332    12.9591     9.5650     90.725    118.333  89.843619     0.0567     0.2686     1.4405   2851.516  0.000e+00
     14.408    12.9419     9.5488     90.536    118.273  89.757569     0.0567     0.2686     1.4441   2851.504  0.000e+00
     14.517    12.9039     9.5350     90.329    118.392  89.757581     0.0568     0.2716     1.4405   2851.504  0.000e+00
     14.650    12.8431     9.5194     90.058    117.824  89.183908     0.0565     0.2686     1.4392   2851.426  0.000e+00
     14.789    12.7707     9.4998     89.727    118.126  89.241299     0.0566     0.2686     1.4405   2851.434  0.000e+00
     14.923    12.6710     9.4795     89.335    118.553  89.327382     0.0567     0.2716     1.3843   2851.445  0.000e+00
     15.028    12.5530     9.4599     88.914    119.040  89.413471     0.0569     0.2808     1.3758   2851.457  0.000e+00
     15.105    12.4380     9.4461     88.554    119.406  89.413505     0.0570     0.2655     1.3758   2851.457  0.000e+00
     15.162    12.3438     9.4438     88.344    119.707  89.413532     0.0571     0.2533     1.3758   2851.457  0.000e+00
     15.214    12.2890     9.4410     88.209    119.883  89.413549     0.0572     0.2747     1.3770   2851.457  0.000e+00
     15.271    12.2497     9.4433     88.152    120.010  89.413561     0.0572     0.2655     1.3745   2851.457  0.000e+00
     15.348    12.2242     9.4553     88.213    120.400  89.643047     0.0574     0.2716     1.3758   2851.488  0.000e+00
     15.452    12.1786     9.4770     88.324    120.702  89.757801     0.0575     0.2777     1.3770   2851.504  0.000e+00
     15.574    12.1074     9.4976     88.374    121.282  90.015990     0.0578     0.2747     1.3953   2851.539  0.000e+00
     15.699    12.0180     9.5162     88.368    122.040  90.360245     0.0581     0.2655     1.3965   2851.586  0.000e+00
     15.815    11.9101     9.5329     88.306    123.523  91.192185     0.0587     0.2686     1.3953   2851.699  0.000e+00
     15.921    11.7829     9.5384     88.101    123.951  91.192224     0.0589     0.2655     1.3965   2851.699  0.000e+00
     16.009    11.6542     9.5297     87.762    124.503  91.278324     0.0591     0.2625     1.3465   2851.711  0.000e+00
     16.091    11.5540     9.5153     87.429    124.805  91.249667     0.0592     0.2747     1.3452   2851.707  0.000e+00
     16.174    11.4848     9.4989     87.139    125.200  91.364438     0.0593     0.2655     1.3416   2851.723  0.000e+00
     16.270    11.4100     9.4851     86.864    125.693  91.536585     0.0595     0.2686     1.3440   2851.746  0.000e+00
     16.365    11.3404     9.4699     86.586    125.934  91.536607     0.0596     0.2716     1.2207   2851.746  0.000e+00
     16.471    11.2760     9.4620     86.385    126.514  91.794817     0.0598     0.2594     1.2122   2851.781  0.000e+00
     16.576    11.2171     9.4575     86.227    127.036  92.024340     0.0600     0.2686     1.2183   2851.813  0.000e+00
     16.670    11.1624     9.4589     86.131    127.347  92.110422     0.0602     0.2747     1.2158   2851.824  0.000e+00
     16.760    11.1004     9.4623     86.039    127.844  92.311261     0.0604     0.2716     1.1975   2851.852  0.000e+00
     16.847    11.0335     9.4695     85.972    128.042  92.282593     0.0604     0.2716     1.1939   2851.848  0.000e+00
     16.944    10.9583     9.4780     85.899    128.908  92.712951     0.0608     0.2777     1.2000   2851.906  0.000e+00
     17.050    10.8753     9.4898     85.841    129.686  93.057250     0.0611     0.2625     1.1975   2851.953  0.000e+00
     17.165    10.7992     9.4943     85.731    130.282  93.286793     0.0613     0.2655     1.2012   2851.984  0.000e+00
     17.277    10.7337     9.5001     85.652    130.883  93.545026     0.0616     0.2655     1.1975   2852.020  0.000e+00
     17.375    10.6739     9.4951     85.488    131.584  93.889333     0.0619     0.2686     1.1975   2852.066  0.000e+00
     17.464    10.6149     9.4879     85.306    132.125  94.118880     0.0621     0.2777     1.1963   2852.098  0.000e+00
     17.542    10.5610     9.4757     85.089    132.366  94.147588     0.0622     0.2747     1.1572   2852.102  0.000e+00
     17.618    10.5130     9.4657     84.905    133.352  94.721436     0.0626     0.2594     1.1572   2852.180  0.000e+00
     17.692    10.4192     9.4643     84.707    134.070  94.979696     0.0629     0.2716     1.1560   2852.215  0.000e+00
     17.781    10.3007     9.4605     84.438    134.398  94.893656     0.0630     0.2655     1.1560   2852.203  0.000e+00
     17.887    10.1780     9.4556     84.152    135.112  95.065849     0.0633     0.2655     1.1572   2852.227  0.000e+00
     18.008    10.0617     9.4503     83.875    135.928  95.324121     0.0636     0.2655     1.1548   2852.262  0.000e+00
     18.131     9.9649     9.4503     83.684    136.346  95.352845     0.0638     0.2716     1.1560   2852.266  0.000e+00
     18.249     9.8913     9.4567     83.595    136.592  95.324176     0.0638     0.2747     1.1609   2852.262  0.000e+00
     18.356     9.8383     9.4684     83.594    136.924  95.410272     0.0640     0.2838     1.1560   2852.273  0.000e+00
     18.443     9.7876     9.4913     83.696    137.123  95.410288     0.0640     0.2716     1.1572   2852.273  0.000e+00
     18.520     9.7227     9.5310     83.917    137.256  95.324230     0.0641     0.2625     1.1560   2852.262  0.000e+00
     18.588     9.6556     9.5717     84.141    137.398  95.238173     0.0641     0.2716     1.1572   2852.250  0.000e+00
     18.656     9.5729     9.6082     84.297    137.602  95.152121     0.0641     0.2655     1.1341   2852.238  0.000e+00
     18.734     9.4888     9.6341     84.355    137.438  94.807838     0.0640     0.2686     1.1377   2852.191  0.000e+00
     18.824     9.3814     9.6542     84.315    137.743  94.721795     0.0641     0.2655     1.1341   2852.180  0.000e+00
     18.932     9.2617     9.6621     84.144    138.140  94.664449     0.0642     0.2594     1.1353   2852.172  0.000e+00
     19.052     9.1576     9.6614     83.929    138.309  94.492330     0.0643     0.2655     1.1560   2852.148  0.000e+00
     19.183     9.0550     9.6658     83.761    138.726  94.492363     0.0644     0.2655     1.1524   2852.148  0.000e+00
     19.307     8.9106     9.6779     83.575    139.317  94.492408     0.0646     0.2716     1.1560   2852.148  0.000e+00
     19.417     8.7329     9.6943     83.360    140.646  94.894154     0.0651     0.2686     1.1585   2852.203  0.000e+00
     19.503     8.5713     9.7098     83.168    141.537  95.037667     0.0655     0.2716     1.1157   2852.223  0.000e+00
     19.575     8.4492     9.7284     83.081    141.968  94.980320     0.0656     0.2716     1.1145   2852.215  0.000e+00
     19.640     8.3768     9.7437     83.067    142.147  94.894266     0.0656     0.2564     1.1145   2852.203  0.000e+00
     19.707     8.3342     9.7698     83.203    142.329  94.894280     0.0657     0.2655     1.1109   2852.203  0.000e+00
     19.782     8.3015     9.8119     83.495    142.210  94.722136     0.0656     0.2655     1.0925   2852.180  0.000e+00
     19.873     8.2729     9.8570     83.820    142.333  94.722146     0.0657     0.2716     1.0999   2852.180  0.000e+00
     19.976     8.2389     9.9082     84.186    142.737  94.894311     0.0658     0.2655     1.0950   2852.203  0.000e+00
     20.089     8.2049     9.9611     84.566    142.970  94.951708     0.0659     0.2777     1.0962   2852.211  0.000e+00
     20.200     8.1772    10.0019     84.854    143.133  94.980410     0.0660     0.2686     1.0986   2852.215  0.000e+00
     20.308     8.1525    10.0265     85.012    143.369  95.066497     0.0661     0.2777     1.0950   2852.227  0.000e+00
     20.407     8.1245    10.0431     85.095    143.490  95.066506     0.0661     0.2838     1.0925   2852.227  0.000e+00
     20.502     8.0931    10.0442     85.039    143.886  95.238674     0.0663     0.2655     1.0999   2852.250  0.000e+00
     20.590     8.0613    10.0422     84.957    144.155  95.324763     0.0664     0.2747     1.0755   2852.262  0.000e+00
     20.674     8.0294    10.0447     84.912    144.294  95.324774     0.0664     0.2777     1.0755   2852.262  0.000e+00
     20.755     8.0011    10.0476     84.878    144.679  95.496943     0.0666     0.2686     1.0742   2852.285  0.000e+00
     20.838     7.9623    10.0527     84.840    144.850  95.496956     0.0666     0.2747     1.0742   2852.285  0.000e+00
     20.926     7.9243    10.0586     84.811    145.148  95.583048     0.0668     0.2716     1.0962   2852.297  0.000e+00
     21.010     7.8657    10.0715     84.798    145.275  95.496987     0.0668     0.2747     1.0962   2852.285  0.000e+00
     21.096     7.7892    10.0861     84.762    145.483  95.410932     0.0668     0.2686     1.0962   2852.273  0.000e+00
     21.193     7.6993    10.1006     84.697    146.278  95.669201     0.0672     0.2655     1.0962   2852.309  0.000e+00
     21.283     7.6170    10.1075     84.584    146.647  95.669228     0.0673     0.2747     1.0718   2852.309  0.000e+00
     21.375     7.5449    10.1159     84.504    146.840  95.583170     0.0673     0.2655     1.0718   2852.297  0.000e+00
     21.461     7.4801    10.1229     84.427    147.133  95.583191     0.0674     0.2716     1.0791   2852.297  0.000e+00
     21.546     7.4175    10.1287     84.345    147.550  95.669292     0.0676     0.2686     1.0718   2852.309  0.000e+00
     21.638     7.3590    10.1345     84.271    147.817  95.669311     0.0677     0.2686     1.0755   2852.309  0.000e+00
     21.729     7.2925    10.1457     84.226    147.988  95.583252     0.0677     0.2747     1.0767   2852.297  0.000e+00
     21.817     7.2245    10.1624     84.222    148.300  95.583274     0.0678     0.2716     1.0791   2852.297  0.000e+00
     21.911     7.1606    10.1757     84.199    148.595  95.583295     0.0679     0.2655     1.0779   2852.297  0.000e+00
     22.006     7.1093    10.1934     84.238    148.922  95.640698     0.0680     0.2777     1.0718   2852.305  0.000e+00
     22.096     7.0709    10.2120     84.312    148.877  95.497244     0.0680     0.2655     1.0718   2852.285  0.000e+00
     22.178     7.0468    10.2331     84.435    148.989  95.497252     0.0680     0.2655     1.0755   2852.285  0.000e+00
     22.250     7.0333    10.2633     84.656    149.186  95.583337     0.0681     0.2747     1.0767   2852.297  0.000e+00
     22.316     7.0264    10.2880     84.845    149.084  95.497259     0.0681     0.2747     1.0742   2852.285  0.000e+00
     22.385     7.0214    10.3174     85.077    149.107  95.497262     0.0681     0.2686     1.0742   2852.285  0.000e+00
     22.461     7.0155    10.3440     85.284    149.000  95.411184     0.0680     0.2716     1.0718   2852.273  0.000e+00
     22.562     7.0010    10.3647     85.423    149.068  95.411189     0.0680     0.2716     1.0706   2852.273  0.000e+00
     22.692     6.9789    10.3765     85.474    149.170  95.411197     0.0681     0.2686     1.0718   2852.273  0.000e+00
     22.834     6.9451    10.3872     85.490    149.328  95.411209     0.0681     0.2655     1.0767   2852.273  0.000e+00
     22.960     6.8959    10.3910     85.417    149.559  95.411226     0.0682     0.2747     1.0742   2852.273  0.000e+00
     23.057     6.8546    10.3871     85.296    149.753  95.411239     0.0683     0.2777     1.0742   2852.273  0.000e+00
     23.122     6.8275    10.3820     85.197    149.880  95.411248     0.0683     0.2655     1.0718   2852.273  0.000e+00
     23.160     6.8098    10.3754     85.105    149.964  95.411254     0.0683     0.2777     1.0742   2852.273  0.000e+00
     23.193     6.8000    10.3744     85.076    150.010  95.411257     0.0684     0.2655     1.0718   2852.273  0.000e+00
     23.250     6.7929    10.3772     85.084    150.044  95.411260     0.0684     0.2747     1.0718   2852.273  0.000e+00
     23.343     6.7798    10.3842     85.114    149.835  95.239106     0.0683     0.2686     1.0547   2852.250  0.000e+00
     23.472     6.7462    10.3923     85.108    149.993  95.239117     0.0683     0.2655     1.0559   2852.250  0.000e+00
     23.626     6.7055    10.3995     85.081    150.186  95.239131     0.0684     0.2686     1.0523   2852.250  0.000e+00
     23.764     6.6555    10.4071     85.037    150.423  95.239148     0.0685     0.2686     1.0523   2852.250  0.000e+00
     23.881     6.6074    10.4109     84.965    150.788  95.325243     0.0686     0.2716     1.0950   2852.262  0.000e+00
     23.970     6.5726    10.4030     84.827    151.091  95.411335     0.0687     0.2594     1.0962   2852.273  0.000e+00
     24.030     6.5502    10.4009     84.762    150.971  95.267876     0.0686     0.2777     1.0999   2852.254  0.000e+00
     24.082     6.5377    10.4004     84.732    151.121  95.325267     0.0687     0.2686     1.0962   2852.262  0.000e+00
     24.136     6.5305    10.4075     84.774    151.293  95.411349     0.0688     0.2777     1.0767   2852.273  0.000e+00
     24.212     6.5225    10.4167     84.832    151.194  95.325273     0.0687     0.2564     1.0767   2852.262  0.000e+00
     24.319     6.5047    10.4378     84.966    151.553  95.497439     0.0689     0.2625     1.0742   2852.285  0.000e+00
     24.448     6.4757    10.4537     85.033    151.693  95.497449     0.0689     0.2625     1.0779   2852.285  0.000e+00
     24.579     6.4409    10.4716     85.104    151.861  95.497461     0.0690     0.2716     1.0559   2852.285  0.000e+00
     24.699     6.4062    10.4860     85.147    152.165  95.583554     0.0691     0.2686     1.0559   2852.297  0.000e+00
     24.804     6.3779    10.4913     85.129    152.029  95.411403     0.0690     0.2777     1.0571   2852.273  0.000e+00
     24.886     6.3490    10.5037     85.168    152.169  95.411412     0.0691     0.2655     1.0523   2852.273  0.000e+00
     24.950     6.3206    10.5062     85.127    152.307  95.411422     0.0691     0.2747     1.0742   2852.273  0.000e+00
     25.006     6.3001    10.5140     85.147    152.406  95.411429     0.0691     0.2655     1.0767   2852.273  0.000e+00
     25.065     6.2878    10.5084     85.075    152.604  95.497513     0.0692     0.2716     1.0791   2852.285  0.000e+00
     25.134     6.2804    10.5073     85.050    152.640  95.497516     0.0692     0.2594     1.0718   2852.285  0.000e+00
     25.242     6.2746    10.5061     85.028    152.439  95.354052     0.0691     0.2747     1.0742   2852.266  0.000e+00
     25.373     6.2662    10.5027     84.982    152.434  95.325362     0.0691     0.2655     1.0742   2852.262  0.000e+00
     25.521     6.2329    10.5090     84.962    152.321  95.153215     0.0691     0.2655     1.0779   2852.238  0.000e+00
     25.660     6.1746    10.5191     84.919    152.744  95.239314     0.0692     0.2716     1.0779   2852.250  0.000e+00
     25.776     6.1131    10.5258     84.841    153.046  95.239334     0.0693     0.2655     1.0767   2852.250  0.000e+00
     25.860     6.0644    10.5332     84.795    153.286  95.239350     0.0694     0.2625     1.0718   2852.250  0.000e+00
     25.920     6.0287    10.5353     84.736    153.324  95.153282     0.0694     0.2747     1.0706   2852.238  0.000e+00
     25.965     6.0079    10.5378     84.711    153.473  95.181982     0.0694     0.2716     1.0742   2852.242  0.000e+00
     26.008     5.9965    10.5421     84.722    153.622  95.239372     0.0695     0.2686     1.0767   2852.250  0.000e+00
     26.072     5.9903    10.5473     84.750    153.514  95.153295     0.0695     0.2777     1.0742   2852.238  0.000e+00
     26.167     5.9833    10.5586     84.826    153.688  95.239377     0.0695     0.2716     1.0718   2852.250  0.000e+00
     26.297     5.9722    10.5737     84.923    153.743  95.239382     0.0695     0.2686     1.0742   2852.250  0.000e+00
     26.445     5.9600    10.5941     85.061    153.942  95.325467     0.0696     0.2716     1.0767   2852.262  0.000e+00
     26.594     5.9389    10.6134     85.170    154.047  95.325475     0.0697     0.2747     1.0718   2852.262  0.000e+00
     26.720     5.8995    10.6333     85.245    154.290  95.354181     0.0697     0.2686     1.0755   2852.266  0.000e+00
     26.819     5.8669    10.6373     85.206    154.407  95.325499     0.0698     0.2686     1.0718   2852.262  0.000e+00
     26.886     5.8469    10.6427     85.206    154.507  95.325506     0.0698     0.2716     1.0742   2852.262  0.000e+00
     26.932     5.8355    10.6390     85.152    154.564  95.325510     0.0698     0.2686     1.0742   2852.262  0.000e+00
     26.978     5.8278    10.6407     85.148    154.603  95.325513     0.0698     0.2716     1.0706   2852.262  0.000e+00
     27.033     5.8207    10.6384     85.115    154.638  95.325515     0.0699     0.2716     1.0742   2852.262  0.000e+00
     27.113     5.8120    10.6394     85.104    154.542  95.239439     0.0698     0.2838     1.0767   2852.250  0.000e+00
     27.221     5.7921    10.6507     85.151    155.295  95.641155     0.0701     0.2686     1.0742   2852.305  0.000e+00
     27.345     5.7388    10.6666     85.163    155.891  95.842030     0.0704     0.2777     1.0755   2852.332  0.000e+00
     27.471     5.6558    10.6815     85.102    156.453  95.928139     0.0706     0.2808     1.0755   2852.344  0.000e+00
     27.594     5.5577    10.6826     84.898    157.096  96.014253     0.0708     0.2777     1.0986   2852.355  0.000e+00
     27.707     5.4814    10.6757     84.678    157.631  96.100361     0.0710     0.2686     1.0999   2852.367  0.000e+00
     27.804     5.4218    10.6613     84.435    157.798  96.014298     0.0710     0.2747     1.0950   2852.355  0.000e+00
     27.890     5.3808    10.6548     84.294    157.870  95.928228     0.0710     0.2655     1.0950   2852.344  0.000e+00
     27.968     5.3563    10.6540     84.235    158.186  96.043014     0.0712     0.2594     1.0767   2852.359  0.000e+00
     28.043     5.3405    10.6564     84.220    158.080  95.928242     0.0711     0.2838     1.0742   2852.344  0.000e+00
     28.118     5.3280    10.6817     84.393    158.428  96.100413     0.0713     0.2716     1.0742   2852.367  0.000e+00
     28.188     5.3181    10.7137     84.624    158.622  96.186500     0.0713     0.2686     1.0718   2852.379  0.000e+00
     28.267     5.3111    10.7460     84.864    158.659  96.186503     0.0714     0.2716     1.0950   2852.379  0.000e+00
     28.352     5.3040    10.7816     85.130    158.932  96.329979     0.0715     0.2716     1.0950   2852.398  0.000e+00
     28.453     5.2957    10.8057     85.302    158.976  96.329983     0.0715     0.2686     1.0950   2852.398  0.000e+00
     28.561     5.2895    10.8291     85.473    159.151  96.416070     0.0716     0.2655     1.0986   2852.410  0.000e+00
     28.670     5.2862    10.8402     85.554    159.026  96.329988     0.0715     0.2747     1.0718   2852.398  0.000e+00
     28.781     5.2845    10.8443     85.582    159.177  96.416073     0.0716     0.2716     1.0718   2852.410  0.000e+00
     28.890     5.2828    10.8482     85.609    159.328  96.502160     0.0716     0.2747     1.0755   2852.422  0.000e+00
     28.990     5.2814    10.8491     85.613    159.194  96.416076     0.0716     0.2777     1.0718   2852.410  0.000e+00
     29.088     5.2811    10.8516     85.632    159.053  96.329993     0.0715     0.2777     1.0718   2852.398  0.000e+00
     29.176     5.2806    10.8506     85.623    159.340  96.502163     0.0717     0.2808     1.0767   2852.422  0.000e+00
     29.259     5.2787    10.8530     85.638    159.302  96.473469     0.0716     0.2716     1.0755   2852.418  0.000e+00
     29.333     5.2741    10.8539     85.635    159.374  96.502167     0.0717     0.2747     1.0718   2852.422  0.000e+00
     29.402     5.2660    10.8502     85.588    159.416  96.502170     0.0717     0.2747     1.0925   2852.422  0.000e+00
     29.473     5.2615    10.8437     85.527    159.440  96.502172     0.0717     0.2747     1.0986   2852.422  0.000e+00
     29.560     5.2489    10.8353     85.433    159.507  96.502176     0.0717     0.2747     1.0938   2852.422  0.000e+00
     29.655     5.2202    10.8249     85.288    159.659  96.502186     0.0718     0.2655     1.0925   2852.422  0.000e+00
     29.759     5.1794    10.8163     85.131    159.874  96.502200     0.0718     0.2777     1.0925   2852.422  0.000e+00
     29.861     5.1447    10.8064     84.977    160.153  96.559602     0.0719     0.2777     1.0950   2852.430  0.000e+00
     29.964     5.1197    10.8010     84.880    160.049  96.416136     0.0719     0.2747     1.0962   2852.410  0.000e+00
     30.063     5.1063    10.7971     84.820    160.120  96.416141     0.0719     0.2655     1.0962   2852.410  0.000e+00
     30.157     5.1027    10.8030     84.858    160.139  96.416143     0.0719     0.2686     1.0950   2852.410  0.000e+00
     30.249     5.1062    10.8024     84.861    160.120  96.416143     0.0719     0.2655     1.0962   2852.410  0.000e+00
     30.339     5.1029    10.8218     85.007    160.281  96.502229     0.0720     0.2777     1.0925   2852.422  0.000e+00
     30.427     5.0998    10.8337     85.093    160.297  96.502231     0.0720     0.2716     1.0950   2852.422  0.000e+00
     30.512     5.0902    10.8517     85.213    160.301  96.473540     0.0720     0.2747     1.0938   2852.418  0.000e+00
     30.586     5.0469    10.8729     85.285    160.579  96.502249     0.0721     0.2716     1.1023   2852.422  0.000e+00
     30.655     4.9993    10.8850     85.275    160.834  96.502265     0.0721     0.2716     1.0950   2852.422  0.000e+00
     30.727     4.9650    10.8846     85.196    161.019  96.502276     0.0722     0.2716     1.0925   2852.422  0.000e+00
     30.802     4.9399    10.8819     85.120    161.154  96.502285     0.0722     0.2686     1.0986   2852.422  0.000e+00
     30.885     4.9235    10.8745     85.026    161.386  96.588376     0.0723     0.2655     1.0950   2852.434  0.000e+00
     30.978     4.9098    10.8681     84.946    161.460  96.588381     0.0724     0.2747     1.0999   2852.434  0.000e+00
     31.089     4.8975    10.8661     84.903    161.478  96.559691     0.0724     0.2716     1.0986   2852.430  0.000e+00
     31.215     4.8857    10.8663     84.879    161.446  96.502305     0.0723     0.2747     1.0950   2852.422  0.000e+00
     31.338     4.8735    10.8710     84.889    161.656  96.588396     0.0724     0.2655     1.0938   2852.434  0.000e+00
     31.450     4.8596    10.8807     84.934    162.020  96.760573     0.0726     0.2808     1.0950   2852.457  0.000e+00
     31.539     4.8410    10.8955     85.009    162.409  96.932752     0.0727     0.2686     1.0925   2852.480  0.000e+00
     31.608     4.8220    10.9021     85.019    162.657  97.018846     0.0728     0.2686     1.0913   2852.492  0.000e+00
     31.659     4.8102    10.9031     85.000    162.577  96.932763     0.0728     0.2655     1.0925   2852.480  0.000e+00
     31.704     4.8039    10.9076     85.021    162.756  97.018852     0.0729     0.2655     1.0950   2852.492  0.000e+00
     31.761     4.7986    10.9104     85.031    162.640  96.932768     0.0728     0.2686     1.1011   2852.480  0.000e+00
     31.833     4.7939    10.9121     85.034    162.810  97.018857     0.0729     0.2716     1.1157   2852.492  0.000e+00
     31.930     4.7887    10.9082     84.993    162.983  97.104947     0.0730     0.2655     1.1133   2852.504  0.000e+00
     32.046     4.7821    10.9091     84.986    163.019  97.104950     0.0730     0.2716     1.1157   2852.504  0.000e+00
     32.163     4.7725    10.9077     84.954    163.361  97.277130     0.0731     0.2808     1.1182   2852.527  0.000e+00
     32.283     4.7646    10.8978     84.859    163.260  97.191045     0.0731     0.2747     1.1157   2852.516  0.000e+00
     32.390     4.7590    10.8920     84.801    163.387  97.248440     0.0731     0.2747     1.1109   2852.523  0.000e+00
     32.485     4.7499    10.8877     84.747    163.630  97.363228     0.0732     0.2716     1.1157   2852.539  0.000e+00
     32.563     4.7311    10.8833     84.672    163.733  97.363235     0.0733     0.2716     1.1157   2852.539  0.000e+00
     32.626     4.7104    10.8826     84.621    163.992  97.449331     0.0734     0.2747     1.1157   2852.551  0.000e+00
     32.684     4.6941    10.8878     84.626    163.938  97.363248     0.0733     0.2747     1.1145   2852.539  0.000e+00
     32.740     4.6820    10.8892     84.610    164.004  97.363252     0.0734     0.2716     1.1133   2852.539  0.000e+00
     32.796     4.6740    10.8919     84.613    164.339  97.535433     0.0735     0.2808     1.1170   2852.563  0.000e+00
     32.862     4.6687    10.8996     84.662    164.271  97.478043     0.0735     0.2716     1.1182   2852.555  0.000e+00
     32.943     4.6639    10.8999     84.654    164.250  97.449349     0.0735     0.2655     1.1157   2852.551  0.000e+00
     33.045     4.6585    10.9034     84.669    164.279  97.449351     0.0735     0.2655     1.1109   2852.551  0.000e+00
     33.164     4.6535    10.9054     84.674    164.694  97.678926     0.0737     0.2655     1.1170   2852.582  0.000e+00
     33.287     4.6451    10.9113     84.701    164.741  97.678930     0.0737     0.2747     1.1182   2852.582  0.000e+00
     33.402     4.6364    10.9096     84.668    164.935  97.765024     0.0738     0.2777     1.1109   2852.594  0.000e+00
     33.502     4.6316    10.9081     84.646    164.961  97.765026     0.0738     0.2594     1.1218   2852.594  0.000e+00
     33.576     4.6290    10.9036     84.606    164.879  97.707634     0.0737     0.2625     1.1170   2852.586  0.000e+00
     33.633     4.6273    10.8987     84.564    164.840  97.678939     0.0737     0.2564     1.1353   2852.582  0.000e+00
     33.686     4.6264    10.8980     84.556    164.845  97.678940     0.0737     0.2777     1.1328   2852.582  0.000e+00
     33.749     4.6260    10.8946     84.529    164.750  97.621547     0.0737     0.2716     1.1377   2852.574  0.000e+00
     33.847     4.6260    10.8925     84.513    164.751  97.621548     0.0737     0.2777     1.1341   2852.574  0.000e+00
     33.969     4.6251    10.8913     84.502    164.852  97.678943     0.0737     0.2777     1.1402   2852.582  0.000e+00
     34.102     4.6238    10.8957     84.533    164.859  97.678944     0.0737     0.2716     1.1341   2852.582  0.000e+00
     34.221     4.6223    10.9009     84.570    165.013  97.765036     0.0738     0.2564     1.1377   2852.594  0.000e+00
     34.322     4.6219    10.9075     84.620    164.870  97.678947     0.0737     0.2716     1.1341   2852.582  0.000e+00
     34.397     4.6198    10.9113     84.645    165.318  97.937220     0.0739     0.2655     1.1170   2852.617  0.000e+00
     34.453     4.6156    10.9215     84.715    165.051  97.765040     0.0738     0.2625     1.1170   2852.594  0.000e+00
     34.504     4.6122    10.9256     84.740    165.215  97.851132     0.0739     0.2655     1.1157   2852.605  0.000e+00
     34.556     4.6105    10.9291     84.763    165.224  97.851133     0.0739     0.2716     1.1109   2852.605  0.000e+00
     34.629     4.6096    10.9377     84.827    165.084  97.765044     0.0738     0.2686     1.1341   2852.594  0.000e+00
     34.726     4.6090    10.9372     84.822    165.087  97.765045     0.0738     0.2716     1.1353   2852.594  0.000e+00
     34.852     4.6081    10.9382     84.828    165.238  97.851137     0.0739     0.2747     1.1353   2852.605  0.000e+00
     34.998     4.6060    10.9324     84.779    165.395  97.937230     0.0739     0.2777     1.1353   2852.617  0.000e+00
     35.132     4.6041    10.9312     84.765    165.406  97.937232     0.0739     0.2686     1.1389   2852.617  0.000e+00
     35.256     4.6030    10.9209     84.683    165.266  97.851142     0.0739     0.2716     1.1341   2852.605  0.000e+00
     35.355     4.6010    10.9154     84.635    165.423  97.937235     0.0740     0.2655     1.1353   2852.617  0.000e+00
     35.422     4.5982    10.9061     84.557    165.584  98.023327     0.0740     0.2777     1.1377   2852.629  0.000e+00
     35.468     4.5934    10.9042     84.532    165.562  97.994632     0.0740     0.2686     1.1402   2852.625  0.000e+00
     35.505     4.5905    10.9047     84.530    165.481  97.937239     0.0740     0.2716     1.1328   2852.617  0.000e+00
     35.551     4.5900    10.9104     84.573    165.484  97.937240     0.0740     0.2716     1.1377   2852.617  0.000e+00
     35.609     4.5902    10.9087     84.560    165.483  97.937240     0.0740     0.2777     1.1341   2852.617  0.000e+00
     35.696     4.5894    10.9110     84.576    165.342  97.851151     0.0739     0.2777     1.1341   2852.605  0.000e+00
     35.815     4.5874    10.9142     84.597    165.644  98.023334     0.0740     0.2655     1.1353   2852.629  0.000e+00
     35.967     4.5850    10.9138     84.588    165.512  97.937245     0.0740     0.2625     1.1377   2852.617  0.000e+00
     36.125     4.5850    10.9121     84.575    165.609  97.994641     0.0740     0.2686     1.1353   2852.625  0.000e+00
     36.267     4.5849    10.9136     84.586    165.513  97.937248     0.0740     0.2747     1.1341   2852.617  0.000e+00
     36.363     4.5822    10.9161     84.600    165.528  97.937250     0.0740     0.2777     1.1377   2852.617  0.000e+00
     36.419     4.5802    10.9252     84.666    165.394  97.851160     0.0739     0.2747     1.1341   2852.605  0.000e+00
     36.442     4.5788    10.9276     84.682    165.693  98.023343     0.0741     0.2716     1.1353   2852.629  0.000e+00
     36.459     4.5788    10.9325     84.719    165.547  97.937252     0.0740     0.2655     1.1609   2852.617  0.000e+00
     36.504     4.5802    10.9375     84.762    165.539  97.937252     0.0740     0.2686     1.1585   2852.617  0.000e+00
     36.590     4.5830    10.9358     84.755    165.620  97.994646     0.0740     0.2716     1.1585   2852.625  0.000e+00
     36.718     4.5850    10.9333     84.740    165.512  97.937252     0.0740     0.2777     1.1499   2852.617  0.000e+00
     36.864     4.5863    10.9301     84.717    165.360  97.851162     0.0739     0.2716     1.1560   2852.605  0.000e+00
     37.011     4.5837    10.9291     84.704    165.520  97.937255     0.0740     0.2686     1.1585   2852.617  0.000e+00
     37.144     4.5760    10.9242     84.649    165.854  98.109442     0.0741     0.2716     1.1560   2852.641  0.000e+00
     37.249     4.5704    10.9174     84.584    165.740  98.023353     0.0741     0.2655     1.1585   2852.629  0.000e+00
     37.323     4.5677    10.9131     84.544    165.755  98.023355     0.0741     0.2747     1.1585   2852.629  0.000e+00
     37.377     4.5669    10.9056     84.485    165.613  97.937264     0.0740     0.2716     1.1572   2852.617  0.000e+00
     37.426     4.5663    10.9087     84.507    165.471  97.851174     0.0739     0.2686     1.1560   2852.605  0.000e+00
     37.474     4.5666    10.9055     84.484    165.615  97.937265     0.0740     0.2655     1.1548   2852.617  0.000e+00
     37.537     4.5677    10.9083     84.508    165.609  97.937265     0.0740     0.2625     1.1768   2852.617  0.000e+00
     37.612     4.5679    10.9162     84.569    165.754  98.023357     0.0741     0.2655     1.1719   2852.629  0.000e+00
     37.719     4.5671    10.9243     84.630    165.758  98.023358     0.0741     0.2716     1.1743   2852.629  0.000e+00
     37.837     4.5670    10.9309     84.681    165.613  97.937268     0.0740     0.2655     1.1817   2852.617  0.000e+00
     37.963     4.5669    10.9351     84.713    165.711  97.994664     0.0741     0.2716     1.1524   2852.625  0.000e+00
     38.089     4.5664    10.9381     84.736    165.762  98.023362     0.0741     0.2747     1.1572   2852.629  0.000e+00
     38.199     4.5661    10.9352     84.712    165.618  97.937272     0.0740     0.2686     1.1633   2852.617  0.000e+00
     38.294     4.5665    10.9356     84.716    165.762  98.023364     0.0741     0.2686     1.1585   2852.629  0.000e+00
     38.372     4.5662    10.9319     84.687    165.909  98.109456     0.0741     0.2777     1.1585   2852.641  0.000e+00
     38.437     4.5636    10.9243     84.622    165.924  98.109458     0.0741     0.2655     1.1548   2852.641  0.000e+00
     38.503     4.5604    10.9238     84.611    166.087  98.195551     0.0742     0.2716     1.1585   2852.652  0.000e+00
     38.577     4.5584    10.9237     84.607    165.904  98.080763     0.0741     0.2716     1.1572   2852.637  0.000e+00
     38.662     4.5589    10.9214     84.590    166.095  98.195553     0.0742     0.2747     1.1585   2852.652  0.000e+00
     38.761     4.5568    10.9267     84.626    166.253  98.281647     0.0743     0.2686     1.1560   2852.664  0.000e+00
     38.859     4.5536    10.9274     84.625    166.125  98.195557     0.0742     0.2777     1.1572   2852.652  0.000e+00
     38.945     4.5526    10.9261     84.612    166.131  98.195558     0.0742     0.2594     1.1572   2852.652  0.000e+00
     39.028     4.5531    10.9257     84.610    166.128  98.195559     0.0742     0.2838     1.1768   2852.652  0.000e+00
     39.108     4.5550    10.9297     84.645    166.117  98.195559     0.0742     0.2716     1.1768   2852.652  0.000e+00
     39.192     4.5568    10.9266     84.626    166.059  98.166862     0.0742     0.2747     1.1780   2852.648  0.000e+00
     39.286     4.5574    10.9262     84.623    165.958  98.109468     0.0742     0.2655     1.1768   2852.641  0.000e+00
     39.383     4.5575    10.9151     84.538    165.957  98.109468     0.0742     0.2777     1.1743   2852.641  0.000e+00
     39.474     4.5562    10.9103     84.498    166.110  98.195562     0.0742     0.2747     1.1817   2852.652  0.000e+00
     39.553     4.5536    10.9108     84.496    166.271  98.281656     0.0743     0.2777     1.1780   2852.664  0.000e+00
     39.619     4.5524    10.9015     84.421    165.986  98.109472     0.0742     0.2747     1.1743   2852.641  0.000e+00
     39.682     4.5497    10.9073     84.460    166.439  98.367751     0.0744     0.2777     1.1792   2852.676  0.000e+00
     39.752     4.5482    10.9055     84.443    166.350  98.310357     0.0743     0.2777     1.1743   2852.668  0.000e+00
     39.842     4.5476    10.9122     84.494    166.305  98.281660     0.0743     0.2808     1.1792   2852.664  0.000e+00
     39.946     4.5460    10.9178     84.533    166.313  98.281662     0.0743     0.2625     1.1768   2852.664  0.000e+00
     40.057     4.5442    10.9298     84.623    166.615  98.453849     0.0744     0.2716     1.1768   2852.688  0.000e+00
     40.170     4.5353    10.9255     84.570    166.811  98.539947     0.0745     0.2747     1.1780   2852.699  0.000e+00
     40.272     4.5264    10.9323     84.603    167.007  98.626044     0.0746     0.2655     1.1768   2852.711  0.000e+00
     40.358     4.5167    10.9318     84.577    166.916  98.539954     0.0746     0.2655     1.1743   2852.699  0.000e+00
     40.436     4.5084    10.9286     84.534    166.963  98.539958     0.0746     0.2625     1.1975   2852.699  0.000e+00
     40.501     4.5039    10.9242     84.491    167.134  98.626053     0.0747     0.2625     1.1963   2852.711  0.000e+00
     40.566     4.5013    10.9198     84.451    167.149  98.626055     0.0747     0.2747     1.1939   2852.711  0.000e+00
     40.645     4.5002    10.9168     84.425    167.156  98.626056     0.0747     0.2716     1.1963   2852.711  0.000e+00
     40.736     4.5002    10.9124     84.391    167.156  98.626057     0.0747     0.2716     1.2000   2852.711  0.000e+00
     40.834     4.4978    10.9123     84.385    167.461  98.798247     0.0748     0.2716     1.1963   2852.734  0.000e+00
     40.936     4.4913    10.9127     84.374    167.498  98.798250     0.0748     0.2594     1.1951   2852.734  0.000e+00
     41.027     4.4862    10.9141     84.373    167.624  98.855649     0.0749     0.2686     1.1963   2852.742  0.000e+00
     41.119     4.4790    10.9108     84.332    167.714  98.884351     0.0749     0.2716     1.2000   2852.746  0.000e+00
     41.201     4.4720    10.9154     84.352    167.900  98.970449     0.0750     0.2655     1.1963   2852.758  0.000e+00
     41.285     4.4667    10.9164     84.349    168.076  99.056547     0.0751     0.2808     1.2000   2852.770  0.000e+00
     41.366     4.4601    10.9163     84.333    168.260  99.142646     0.0751     0.2716     1.1975   2852.781  0.000e+00
     41.449     4.4528    10.9213     84.356    168.301  99.142649     0.0752     0.2655     1.2000   2852.781  0.000e+00
     41.529     4.4469    10.9138     84.285    168.189  99.056556     0.0751     0.2686     1.1975   2852.770  0.000e+00
     41.609     4.4433    10.9114     84.258    168.502  99.228750     0.0752     0.2747     1.1963   2852.793  0.000e+00
     41.695     4.4402    10.9075     84.221    168.374  99.142655     0.0752     0.2747     1.1963   2852.781  0.000e+00
     41.784     4.4378    10.9038     84.187    168.241  99.056561     0.0751     0.2716     1.1963   2852.770  0.000e+00
     41.882     4.4356    10.9034     84.179    168.254  99.056563     0.0751     0.2686     1.1939   2852.770  0.000e+00
     41.978     4.4336    10.9017     84.162    168.265  99.056564     0.0751     0.2716     1.1963   2852.770  0.000e+00
     42.078     4.4309    10.9065     84.194    168.281  99.056566     0.0751     0.2625     1.1926   2852.770  0.000e+00
     42.172     4.4277    10.9091     84.206    168.445  99.142664     0.0752     0.2808     1.1939   2852.781  0.000e+00
     42.265     4.4270    10.9155     84.254    168.303  99.056569     0.0751     0.2594     1.1963   2852.770  0.000e+00
     42.348     4.4255    10.9121     84.225    168.165  98.970475     0.0751     0.2777     1.1975   2852.758  0.000e+00
     42.425     4.4221    10.9145     84.236    168.575  99.200066     0.0753     0.2655     1.2000   2852.789  0.000e+00
     42.488     4.4179    10.9091     84.185    168.501  99.142670     0.0752     0.2716     1.1975   2852.781  0.000e+00
     42.557     4.4149    10.9013     84.118    168.519  99.142672     0.0752     0.2747     1.2012   2852.781  0.000e+00
     42.631     4.4136    10.8985     84.093    168.526  99.142673     0.0752     0.2686     1.1939   2852.781  0.000e+00
     42.723     4.4114    10.8924     84.042    168.539  99.142674     0.0752     0.2716     1.1975   2852.781  0.000e+00
     42.823     4.4081    10.8912     84.025    168.411  99.056580     0.0752     0.2655     1.1914   2852.770  0.000e+00
     42.922     4.4049    10.8887     83.999    168.576  99.142678     0.0752     0.2686     1.1963   2852.781  0.000e+00
     43.012     4.4000    10.8872     83.976    168.604  99.142681     0.0753     0.2716     1.1963   2852.781  0.000e+00
     43.094     4.3945    10.8855     83.951    168.635  99.142683     0.0753     0.2747     1.1975   2852.781  0.000e+00
     43.169     4.3913    10.8892     83.973    168.751  99.200082     0.0753     0.2686     1.2195   2852.789  0.000e+00
     43.249     4.3892    10.8862     83.945    168.666  99.142686     0.0753     0.2716     1.2171   2852.781  0.000e+00
     43.341     4.3868    10.8900     83.970    168.777  99.200086     0.0753     0.2686     1.2195   2852.789  0.000e+00
     43.441     4.3844    10.8890     83.956    168.938  99.286184     0.0754     0.2686     1.2195   2852.801  0.000e+00
     43.547     4.3828    10.8914     83.972    168.947  99.286185     0.0754     0.2747     1.1963   2852.801  0.000e+00
     43.634     4.3800    10.8943     83.988    168.963  99.286187     0.0754     0.2716     1.1975   2852.801  0.000e+00
     43.703     4.3773    10.8944     83.983    168.832  99.200092     0.0753     0.2686     1.1963   2852.789  0.000e+00
     43.757     4.3762    10.8973     84.003    168.985  99.286189     0.0754     0.2838     1.1975   2852.801  0.000e+00
     43.808     4.3753    10.8976     84.003    169.137  99.372287     0.0755     0.2564     1.2195   2852.813  0.000e+00
     43.868     4.3746    10.8930     83.966    168.896  99.228793     0.0754     0.2686     1.2207   2852.793  0.000e+00
     43.953     4.3749    10.8847     83.903    168.846  99.200095     0.0753     0.2838     1.2171   2852.789  0.000e+00
     44.069     4.3747    10.8772     83.844    168.847  99.200096     0.0753     0.2686     1.2195   2852.789  0.000e+00
     44.203     4.3744    10.8709     83.795    168.849  99.200098     0.0753     0.2686     1.1951   2852.789  0.000e+00
     44.340     4.3746    10.8645     83.746    168.994  99.286195     0.0754     0.2716     1.1939   2852.801  0.000e+00
     44.465     4.3745    10.8589     83.703    168.848  99.200100     0.0753     0.2655     1.1975   2852.789  0.000e+00
     44.560     4.3733    10.8517     83.644    169.002  99.286198     0.0754     0.2716     1.1939   2852.801  0.000e+00
     44.622     4.3721    10.8518     83.643    169.008  99.286199     0.0754     0.2655     1.2171   2852.801  0.000e+00
     44.656     4.3709    10.8523     83.644    169.162  99.372296     0.0755     0.2686     1.2195   2852.813  0.000e+00
     44.677     4.3693    10.8570     83.677    169.171  99.372297     0.0755     0.2655     1.2158   2852.813  0.000e+00
     44.708     4.3683    10.8596     83.695    169.177  99.372298     0.0755     0.2747     1.2183   2852.813  0.000e+00
     44.758     4.3685    10.8612     83.707    169.029  99.286201     0.0754     0.2747     1.2183   2852.801  0.000e+00
     44.839     4.3670    10.8654     83.737    169.038  99.286202     0.0754     0.2777     1.2134   2852.801  0.000e+00
     44.953     4.3651    10.8705     83.771    169.049  99.286204     0.0754     0.2777     1.2183   2852.801  0.000e+00
     45.109     4.3625    10.8774     83.819    169.210  99.372303     0.0755     0.2777     1.2207   2852.813  0.000e+00
     45.287     4.3590    10.8867     83.883    169.230  99.372306     0.0755     0.2716     1.2183   2852.813  0.000e+00
     45.437     4.3566    10.8913     83.914    169.244  99.372308     0.0755     0.2777     1.2183   2852.813  0.000e+00
     45.538     4.3549    10.8970     83.953    169.401  99.458407     0.0756     0.2747     1.2195   2852.824  0.000e+00
     45.594     4.3551    10.8995     83.973    169.107  99.286213     0.0754     0.2564     1.2183   2852.801  0.000e+00
     45.612     4.3536    10.9021     83.990    169.262  99.372311     0.0755     0.2777     1.2207   2852.813  0.000e+00
     45.613     4.3513    10.9030     83.992    169.275  99.372312     0.0755     0.2777     1.2134   2852.813  0.000e+00
     45.619     4.3508    10.8985     83.956    169.278  99.372312     0.0755     0.2777     1.2171   2852.813  0.000e+00
     45.663     4.3509    10.8996     83.965    169.277  99.372312     0.0755     0.2716     1.2158   2852.813  0.000e+00
     45.763     4.3507    10.8998     83.966    169.278  99.372313     0.0755     0.2716     1.2158   2852.813  0.000e+00
     45.908     4.3396    10.8973     83.922    169.196  99.286221     0.0755     0.2716     1.2158   2852.801  0.000e+00
     46.069     4.3233    10.8965     83.880    169.437  99.372325     0.0756     0.2716     1.2183   2852.813  0.000e+00
     46.215     4.3126    10.8980     83.868    169.205  99.200136     0.0755     0.2686     1.2158   2852.789  0.000e+00
     46.326     4.3051    10.8912     83.800    169.248  99.200140     0.0755     0.2716     1.2195   2852.789  0.000e+00
     46.409     4.2976    10.8860     83.743    169.439  99.286240     0.0756     0.2716     1.2207   2852.801  0.000e+00
     46.466     4.2911    10.8805     83.687    169.623  99.372339     0.0756     0.2808     1.2207   2852.813  0.000e+00
     46.510     4.2863    10.8710     83.603    169.651  99.372341     0.0756     0.2716     1.2183   2852.813  0.000e+00
     46.557     4.2838    10.8701     83.591    169.518  99.286245     0.0756     0.2686     1.2403   2852.801  0.000e+00
     46.617     4.2827    10.8708     83.594    169.525  99.286246     0.0756     0.2686     1.2390   2852.801  0.000e+00
     46.693     4.2808    10.8747     83.620    169.830  99.458442     0.0757     0.2716     1.2366   2852.824  0.000e+00
     46.777     4.2782    10.8790     83.647    169.845  99.458444     0.0757     0.2716     1.2403   2852.824  0.000e+00
     46.866     4.2749    10.8940     83.755    170.354  99.745439     0.0760     0.2747     1.2134   2852.863  0.000e+00
     46.957     4.2687    10.9041     83.819    170.636  99.888940     0.0761     0.2716     1.2158   2852.883  0.000e+00
     47.045     4.2591    10.9105     83.847    171.280 100.233344     0.0764     0.2808     1.2183   2852.930  0.000e+00
     47.133     4.2495    10.9169     83.875    171.042 100.061148     0.0762     0.2686     1.2171   2852.906  0.000e+00
     47.229     4.2420    10.9155     83.848    171.233 100.147251     0.0763     0.2747     1.2390   2852.918  0.000e+00
     47.326     4.2376    10.9122     83.814    171.259 100.147254     0.0763     0.2655     1.2415   2852.918  0.000e+00
     47.424     4.2357    10.9075     83.773    171.123 100.061155     0.0763     0.2686     1.2415   2852.906  0.000e+00
     47.516     4.2341    10.9027     83.732    171.279 100.147257     0.0763     0.2747     1.2415   2852.918  0.000e+00
     47.593     4.2333    10.8978     83.694    171.284 100.147257     0.0763     0.2716     1.2366   2852.918  0.000e+00
     47.660     4.2335    10.8912     83.643    171.283 100.147258     0.0763     0.2716     1.2427   2852.918  0.000e+00
     47.714     4.2333    10.8880     83.618    171.431 100.233359     0.0764     0.2686     1.2427   2852.930  0.000e+00
     47.765     4.2330    10.8815     83.567    171.285 100.147259     0.0763     0.2655     1.2366   2852.918  0.000e+00
     47.822     4.2332    10.8757     83.523    171.137 100.061159     0.0763     0.2686     1.2403   2852.906  0.000e+00
     47.901     4.2331    10.8705     83.483    171.285 100.147260     0.0763     0.2747     1.2366   2852.918  0.000e+00
     48.003     4.2323    10.8663     83.450    171.388 100.204662     0.0764     0.2716     1.2366   2852.926  0.000e+00
     48.131     4.2308    10.8658     83.442    171.888 100.491668     0.0766     0.2777     1.2403   2852.965  0.000e+00
     48.264     4.2264    10.8610     83.396    172.061 100.577772     0.0767     0.2777     1.2427   2852.977  0.000e+00
     48.391     4.2217    10.8601     83.379    172.334 100.721279     0.0768     0.2747     1.2366   2852.996  0.000e+00
     48.499     4.2181    10.8572     83.348    172.355 100.721282     0.0768     0.2777     1.2366   2852.996  0.000e+00
     48.570     4.2149    10.8550     83.325    172.276 100.663881     0.0768     0.2655     1.2390   2852.988  0.000e+00
     48.612     4.2123    10.8508     83.287    172.291 100.663883     0.0768     0.2655     1.2366   2852.988  0.000e+00
     48.631     4.2111    10.8421     83.218    172.544 100.807388     0.0769     0.2747     1.2366   2853.008  0.000e+00
     48.657     4.2105    10.8329     83.146    172.400 100.721286     0.0768     0.2594     1.2439   2852.996  0.000e+00
     48.712     4.2103    10.8165     83.019    172.549 100.807389     0.0769     0.2747     1.2415   2853.008  0.000e+00
     48.810     4.2104    10.8086     82.959    172.548 100.807390     0.0769     0.2686     1.2366   2853.008  0.000e+00
     48.938     4.2091    10.7981     82.875    172.556 100.807392     0.0769     0.2808     1.2390   2853.008  0.000e+00
     49.079     4.2071    10.7868     82.785    172.322 100.663889     0.0768     0.2686     1.2403   2852.988  0.000e+00
     49.205     4.2056    10.7935     82.833    172.576 100.807395     0.0769     0.2808     1.2354   2853.008  0.000e+00
     49.308     4.2039    10.7782     82.712    172.734 100.893500     0.0770     0.2655     1.2366   2853.020  0.000e+00
     49.383     4.2019    10.7879     82.781    172.746 100.893501     0.0770     0.2686     1.2366   2853.020  0.000e+00
     49.435     4.2009    10.7952     82.836    172.604 100.807399     0.0769     0.2655     1.2366   2853.008  0.000e+00
     49.472     4.1999    10.7915     82.805    172.610 100.807400     0.0769     0.2716     1.2427   2853.008  0.000e+00
     49.519     4.1991    10.8082     82.931    172.762 100.893504     0.0770     0.2686     1.2403   2853.020  0.000e+00
     49.578     4.1986    10.7923     82.809    172.765 100.893504     0.0770     0.2777     1.2427   2853.020  0.000e+00
     49.666     4.1982    10.7863     82.761    172.915 100.979609     0.0771     0.2747     1.2390   2853.031  0.000e+00
     49.773     4.1969    10.7808     82.717    173.021 101.037013     0.0771     0.2686     1.2366   2853.039  0.000e+00
     49.896     4.1936    10.7897     82.777    173.090 101.065717     0.0771     0.2686     1.2366   2853.043  0.000e+00
     50.009     4.1900    10.7915     82.783    173.111 101.065719     0.0771     0.2716     1.2415   2853.043  0.000e+00
     50.105     4.1873    10.7932     82.790    173.274 101.151825     0.0772     0.2716     1.2415   2853.055  0.000e+00
     50.179     4.1864    10.7913     82.774    172.985 100.979618     0.0771     0.2716     1.2403   2853.031  0.000e+00
     50.233     4.1859    10.7943     82.796    173.136 101.065722     0.0772     0.2716     1.2622   2853.043  0.000e+00
     50.290     4.1852    10.7947     82.798    173.140 101.065723     0.0772     0.2594     1.2598   2853.043  0.000e+00
     50.348     4.1852    10.7944     82.796    173.238 101.123127     0.0772     0.2716     1.2610   2853.051  0.000e+00
     50.433     4.1846    10.7878     82.743    173.291 101.151829     0.0772     0.2686     1.2610   2853.055  0.000e+00
     50.534     4.1831    10.7798     82.679    173.595 101.324040     0.0774     0.2747     1.2366   2853.078  0.000e+00
     50.653     4.1804    10.7807     82.680    173.758 101.410148     0.0774     0.2808     1.2415   2853.090  0.000e+00
     50.768     4.1779    10.7825     82.688    173.773 101.410150     0.0774     0.2625     1.2403   2853.090  0.000e+00
     50.864     4.1760    10.7826     82.685    173.932 101.496257     0.0775     0.2747     1.2390   2853.102  0.000e+00
     50.940     4.1751    10.7783     82.650    173.790 101.410152     0.0774     0.2747     1.2390   2853.090  0.000e+00
     51.007     4.1740    10.7769     82.637    173.944 101.496259     0.0775     0.2808     1.2366   2853.102  0.000e+00
     51.068     4.1725    10.7716     82.593    173.953 101.496260     0.0775     0.2625     1.2366   2853.102  0.000e+00
     51.133     4.1711    10.7647     82.537    174.109 101.582368     0.0776     0.2716     1.2390   2853.113  0.000e+00
     51.208     4.1697    10.7578     82.481    173.970 101.496263     0.0775     0.2655     1.2610   2853.102  0.000e+00
     51.292     4.1686    10.7510     82.426    174.124 101.582370     0.0776     0.2777     1.2598   2853.113  0.000e+00
     51.382     4.1675    10.7456     82.383    174.278 101.668478     0.0777     0.2686     1.2598   2853.125  0.000e+00
     51.472     4.1650    10.7483     82.398    174.293 101.668479     0.0777     0.2686     1.2622   2853.125  0.000e+00
     51.567     4.1625    10.7459     82.374    174.308 101.668481     0.0777     0.2747     1.2561   2853.125  0.000e+00
     51.668     4.1613    10.7429     82.349    174.463 101.754589     0.0777     0.2686     1.2573   2853.137  0.000e+00
     51.776     4.1594    10.7485     82.388    174.474 101.754591     0.0777     0.2747     1.2622   2853.137  0.000e+00
     51.878     4.1580    10.7488     82.387    174.778 101.926807     0.0779     0.2716     1.2598   2853.160  0.000e+00
     51.966     4.1564    10.7466     82.367    174.639 101.840701     0.0778     0.2747     1.2586   2853.148  0.000e+00
     52.044     4.1551    10.7436     82.341    174.943 102.012918     0.0780     0.2716     1.2610   2853.172  0.000e+00
     52.108     4.1546    10.7371     82.290    174.699 101.869405     0.0778     0.2747     1.2598   2853.152  0.000e+00
     52.166     4.1550    10.7343     82.269    174.944 102.012919     0.0780     0.2625     1.2622   2853.172  0.000e+00
     52.220     4.1543    10.7334     82.261    175.095 102.099028     0.0780     0.2716     1.2573   2853.184  0.000e+00
     52.284     4.1546    10.7289     82.228    174.946 102.012920     0.0780     0.2747     1.2561   2853.172  0.000e+00
     52.362     4.1547    10.7225     82.179    174.945 102.012921     0.0780     0.2716     1.2573   2853.172  0.000e+00
     52.472     4.1544    10.7202     82.160    175.094 102.099030     0.0780     0.2686     1.2598   2853.184  0.000e+00
     52.584     4.1551    10.7134     82.109    175.091 102.099031     0.0780     0.2777     1.2622   2853.184  0.000e+00
     52.700     4.1560    10.7108     82.091    175.085 102.099032     0.0780     0.2686     1.2622   2853.184  0.000e+00
     52.801     4.1562    10.7085     82.074    175.231 102.185142     0.0781     0.2747     1.2622   2853.195  0.000e+00
     52.892     4.1564    10.7004     82.013    175.230 102.185142     0.0781     0.2716     1.2586   2853.195  0.000e+00
     52.955     4.1566    10.6942     81.966    175.327 102.242549     0.0781     0.2716     1.2598   2853.203  0.000e+00
     52.989     4.1565    10.6920     81.949    175.328 102.242549     0.0781     0.2716     1.2598   2853.203  0.000e+00
     53.011     4.1567    10.6885     81.923    175.327 102.242549     0.0781     0.2716     1.2634   2853.203  0.000e+00
     53.035     4.1570    10.6803     81.860    175.473 102.328659     0.0782     0.2686     1.2586   2853.215  0.000e+00
     53.081     4.1570    10.6748     81.818    175.227 102.185144     0.0781     0.2716     1.2586   2853.195  0.000e+00
     53.157     4.1573    10.6667     81.756    175.077 102.099036     0.0780     0.2777     1.2647   2853.184  0.000e+00
     53.275     4.1571    10.6615     81.716    175.472 102.328661     0.0782     0.2625     1.2622   2853.215  0.000e+00
     53.415     4.1558    10.6575     81.683    175.480 102.328663     0.0782     0.2716     1.2634   2853.215  0.000e+00
     53.559     4.1552    10.6552     81.663    175.336 102.242555     0.0781     0.2655     1.2598   2853.203  0.000e+00
     53.671     4.1542    10.6541     81.653    175.342 102.242557     0.0781     0.2716     1.2598   2853.203  0.000e+00
     53.745     4.1537    10.6548     81.658    175.492 102.328667     0.0782     0.2655     1.2573   2853.215  0.000e+00
     53.785     4.1539    10.6552     81.661    175.393 102.271261     0.0782     0.2655     1.2598   2853.207  0.000e+00
     53.814     4.1538    10.6568     81.673    175.492 102.328667     0.0782     0.2716     1.2573   2853.215  0.000e+00
     53.852     4.1545    10.6546     81.658    175.488 102.328667     0.0782     0.2777     1.2573   2853.215  0.000e+00
     53.911     4.1552    10.6578     81.683    175.336 102.242559     0.0781     0.2747     1.2586   2853.203  0.000e+00
     54.002     4.1548    10.6519     81.638    175.486 102.328669     0.0782     0.2747     1.2586   2853.215  0.000e+00
     54.112     4.1537    10.6563     81.670    175.640 102.414780     0.0783     0.2716     1.2634   2853.227  0.000e+00
     54.225     4.1531    10.6511     81.628    175.496 102.328671     0.0782     0.2655     1.2586   2853.215  0.000e+00
     54.328     4.1514    10.6486     81.605    175.654 102.414783     0.0783     0.2625     1.2598   2853.227  0.000e+00
     54.419     4.1499    10.6504     81.615    175.515 102.328674     0.0782     0.2838     1.2610   2853.215  0.000e+00
     54.494     4.1494    10.6505     81.616    175.666 102.414785     0.0783     0.2747     1.2573   2853.227  0.000e+00
     54.559     4.1480    10.6530     81.632    175.675 102.414786     0.0783     0.2625     1.2622   2853.227  0.000e+00
     54.618     4.1473    10.6566     81.657    175.679 102.414787     0.0783     0.2747     1.2598   2853.227  0.000e+00
     54.672     4.1469    10.6574     81.663    175.681 102.414787     0.0783     0.2716     1.2622   2853.227  0.000e+00
     54.728     4.1464    10.6510     81.613    175.684 102.414788     0.0783     0.2564     1.2793   2853.227  0.000e+00
     54.800     4.1462    10.6459     81.573    175.833 102.500899     0.0784     0.2716     1.2866   2853.238  0.000e+00
     54.885     4.1462    10.6412     81.537    175.981 102.587010     0.0784     0.2655     1.2854   2853.250  0.000e+00
     54.984     4.1455    10.6335     81.477    175.985 102.587011     0.0784     0.2655     1.2805   2853.250  0.000e+00
     55.096     4.1449    10.6366     81.499    175.989 102.587013     0.0784     0.2655     1.2805   2853.250  0.000e+00
     55.211     4.1449    10.6289     81.441    175.841 102.500903     0.0784     0.2808     1.2854   2853.238  0.000e+00
     55.315     4.1445    10.6290     81.441    175.991 102.587015     0.0784     0.2655     1.2805   2853.250  0.000e+00
     55.401     4.1446    10.6327     81.469    176.138 102.673126     0.0785     0.2716     1.2805   2853.262  0.000e+00
     55.478     4.1455    10.6379     81.511    176.084 102.644423     0.0785     0.2686     1.2793   2853.258  0.000e+00
     55.540     4.1464    10.6443     81.562    176.127 102.673127     0.0785     0.2655     1.2805   2853.262  0.000e+00
     55.600     4.1468    10.6452     81.569    176.125 102.673127     0.0785     0.2625     1.2793   2853.262  0.000e+00
     55.673     4.1475    10.6410     81.539    175.973 102.587017     0.0784     0.2777     1.2769   2853.250  0.000e+00
     55.765     4.1473    10.6415     81.542    175.827 102.500908     0.0784     0.2869     1.2622   2853.238  0.000e+00
     55.886     4.1476    10.6406     81.536    176.120 102.673130     0.0785     0.2686     1.2622   2853.262  0.000e+00
     56.010     4.1474    10.6306     81.459    175.924 102.558317     0.0784     0.2747     1.2586   2853.246  0.000e+00
     56.122     4.1472    10.6225     81.396    175.975 102.587022     0.0784     0.2777     1.2573   2853.250  0.000e+00
     56.222     4.1475    10.6143     81.334    176.121 102.673133     0.0785     0.2686     1.2805   2853.262  0.000e+00
     56.298     4.1473    10.6103     81.303    176.122 102.673134     0.0785     0.2777     1.2805   2853.262  0.000e+00
     56.361     4.1470    10.6164     81.349    175.976 102.587024     0.0784     0.2716     1.2793   2853.250  0.000e+00
     56.414     4.1473    10.6171     81.355    176.122 102.673135     0.0785     0.2716     1.2830   2853.262  0.000e+00
     56.467     4.1469    10.6164     81.349    176.124 102.673136     0.0785     0.2655     1.2842   2853.262  0.000e+00
     56.523     4.1464    10.6237     81.404    176.078 102.644433     0.0785     0.2655     1.2830   2853.258  0.000e+00
     56.591     4.1469    10.6293     81.447    175.977 102.587026     0.0784     0.2655     1.2854   2853.250  0.000e+00
     56.663     4.1467    10.6340     81.484    175.978 102.587027     0.0784     0.2716     1.2830   2853.250  0.000e+00
     56.750     4.1465    10.6359     81.497    176.127 102.673139     0.0785     0.2777     1.2830   2853.262  0.000e+00
     56.854     4.1468    10.6330     81.476    175.977 102.587029     0.0784     0.2686     1.2830   2853.250  0.000e+00
     56.962     4.1464    10.6298     81.451    176.127 102.673141     0.0785     0.2808     1.2805   2853.262  0.000e+00
     57.073     4.1460    10.6316     81.464    175.982 102.587031     0.0784     0.2777     1.2854   2853.250  0.000e+00
     57.183     4.1461    10.6291     81.445    176.228 102.730550     0.0785     0.2716     1.2854   2853.270  0.000e+00
     57.283     4.1456    10.6268     81.426    176.133 102.673144     0.0785     0.2655     1.2854   2853.262  0.000e+00
     57.362     4.1454    10.6183     81.360    176.134 102.673145     0.0785     0.2716     1.2842   2853.262  0.000e+00
     57.421     4.1459    10.6142     81.330    176.278 102.759256     0.0786     0.2747     1.2842   2853.273  0.000e+00
     57.465     4.1454    10.6143     81.330    176.134 102.673146     0.0785     0.2747     1.2769   2853.262  0.000e+00
     57.500     4.1451    10.6132     81.321    176.135 102.673146     0.0785     0.2655     1.2793   2853.262  0.000e+00
     57.547     4.1455    10.6084     81.284    176.133 102.673147     0.0785     0.2747     1.2793   2853.262  0.000e+00
     57.619     4.1449    10.6093     81.291    176.087 102.644444     0.0785     0.2686     1.2854   2853.258  0.000e+00
     57.723     4.1451    10.6070     81.273    176.283 102.759260     0.0786     0.2686     1.2781   2853.273  0.000e+00
     57.850     4.1439    10.6088     81.284    176.586 102.931484     0.0787     0.2625     1.2805   2853.297  0.000e+00
     57.981     4.1414    10.6126     81.308    176.453 102.845375     0.0786     0.2716     1.2818   2853.285  0.000e+00
     58.098     4.1406    10.6107     81.292    176.458 102.845376     0.0786     0.2686     1.2830   2853.285  0.000e+00
     58.186     4.1400    10.6100     81.285    176.462 102.845377     0.0786     0.2686     1.2818   2853.285  0.000e+00
     58.248     4.1391    10.6116     81.296    176.467 102.845378     0.0786     0.2747     1.2793   2853.285  0.000e+00
     58.291     4.1393    10.6096     81.280    176.269 102.730563     0.0785     0.2686     1.2793   2853.270  0.000e+00
     58.332     4.1397    10.6085     81.273    176.464 102.845379     0.0786     0.2655     1.2793   2853.285  0.000e+00
     58.379     4.1400    10.6088     81.276    176.314 102.759268     0.0786     0.2686     1.3013   2853.273  0.000e+00
     58.444     4.1405    10.6107     81.292    176.607 102.931491     0.0787     0.2655     1.3025   2853.297  0.000e+00
     58.536     4.1380    10.6079     81.265    176.622 102.931493     0.0787     0.2808     1.3037   2853.297  0.000e+00
     58.645     4.1349    10.6085     81.263    176.788 103.017607     0.0788     0.2686     1.3013   2853.309  0.000e+00
     58.765     4.1337    10.6142     81.304    176.795 103.017609     0.0788     0.2777     1.2793   2853.309  0.000e+00
     58.875     4.1328    10.6140     81.300    176.703 102.960202     0.0787     0.2564     1.2818   2853.301  0.000e+00
     58.966     4.1323    10.6133     81.294    176.656 102.931499     0.0787     0.2716     1.2781   2853.297  0.000e+00
     59.033     4.1323    10.6183     81.333    176.804 103.017612     0.0788     0.2686     1.2830   2853.309  0.000e+00
     59.081     4.1320    10.6167     81.320    176.658 102.931500     0.0787     0.2777     1.3025   2853.297  0.000e+00
     59.120     4.1316    10.6095     81.264    176.808 103.017613     0.0788     0.2747     1.3013   2853.309  0.000e+00
     59.167     4.1318    10.6050     81.229    176.659 102.931501     0.0787     0.2686     1.3001   2853.297  0.000e+00
     59.237     4.1315    10.5959     81.159    176.661 102.931502     0.0787     0.2747     1.3025   2853.297  0.000e+00
     59.329     4.1316    10.5880     81.099    176.710 102.960207     0.0787     0.2716     1.2805   2853.301  0.000e+00
     59.449     4.1320    10.5775     81.020    176.658 102.931504     0.0787     0.2655     1.2854   2853.297  0.000e+00
     59.571     4.1317    10.5813     81.048    176.512 102.845393     0.0787     0.2747     1.2757   2853.285  0.000e+00
     59.669     4.1320    10.5787     81.028    176.806 103.017618     0.0788     0.2594     1.2830   2853.309  0.000e+00
     59.739     4.1320    10.5731     80.986    176.658 102.931507     0.0787     0.2655     1.2805   2853.297  0.000e+00
     59.782     4.1313    10.5735     80.987    176.810 103.017619     0.0788     0.2655     1.2854   2853.309  0.000e+00
     59.815     4.1317    10.5676     80.943    176.709 102.960211     0.0787     0.2716     1.2793   2853.301  0.000e+00
     59.860     4.1316    10.5668     80.936    176.660 102.931508     0.0787     0.2716     1.2769   2853.297  0.000e+00
     59.926     4.1313    10.5671     80.938    176.662 102.931509     0.0787     0.2777     1.2842   2853.297  0.000e+00
     60.032     4.1310    10.5652     80.923    176.812 103.017622     0.0788     0.2716     1.2793   2853.309  0.000e+00
     60.157     4.1296    10.5580     80.865    176.820 103.017624     0.0788     0.2716     1.2793   2853.309  0.000e+00
     60.285     4.1288    10.5658     80.923    176.678 102.931513     0.0787     0.2655     1.2818   2853.297  0.000e+00
     60.384     4.1287    10.5688     80.945    176.678 102.931514     0.0787     0.2686     1.2842   2853.297  0.000e+00
     60.456     4.1287    10.5693     80.949    176.727 102.960219     0.0787     0.2808     1.2781   2853.301  0.000e+00
     60.508     4.1296    10.5797     81.031    176.820 103.017627     0.0788     0.2625     1.2818   2853.309  0.000e+00
     60.549     4.1300    10.5845     81.068    176.818 103.017627     0.0788     0.2594     1.2805   2853.309  0.000e+00
     60.587     4.1296    10.5894     81.106    176.525 102.845404     0.0787     0.2716     1.2793   2853.285  0.000e+00
     60.645     4.1300    10.5990     81.179    176.670 102.931516     0.0787     0.2716     1.2793   2853.297  0.000e+00
     60.728     4.1297    10.5984     81.174    176.672 102.931517     0.0787     0.2594     1.2793   2853.297  0.000e+00
     60.836     4.1287    10.6153     81.302    176.678 102.931518     0.0787     0.2594     1.2805   2853.297  0.000e+00
     60.960     4.1287    10.6245     81.373    176.826 103.017632     0.0788     0.2777     1.2769   2853.309  0.000e+00
     61.080     4.1286    10.6234     81.364    176.827 103.017633     0.0788     0.2716     1.2805   2853.309  0.000e+00
     61.191     4.1280    10.6175     81.317    176.830 103.017634     0.0788     0.2808     1.2805   2853.309  0.000e+00
     61.267     4.1294    10.6272     81.394    176.821 103.017634     0.0788     0.2655     1.2793   2853.309  0.000e+00
     61.323     4.1303    10.6278     81.401    176.816 103.017635     0.0788     0.2747     1.2805   2853.309  0.000e+00
     61.364     4.1304    10.6264     81.390    176.668 102.931523     0.0787     0.2716     1.2830   2853.297  0.000e+00
     61.415     4.1298    10.6239     81.370    176.819 103.017636     0.0788     0.2625     1.2879   2853.309  0.000e+00
     61.484     4.1276    10.6175     81.317    176.734 102.960229     0.0787     0.2686     1.2805   2853.301  0.000e+00
     61.579     4.1254    10.5973     81.157    176.846 103.017639     0.0788     0.2747     1.3013   2853.309  0.000e+00
     61.697     4.1241    10.5956     81.141    176.706 102.931528     0.0787     0.2716     1.3013   2853.297  0.000e+00
     61.812     4.1224    10.5816     81.030    176.717 102.931530     0.0787     0.2686     1.3013   2853.297  0.000e+00
     61.925     4.1212    10.5619     80.877    177.019 103.103756     0.0789     0.2686     1.3025   2853.320  0.000e+00
     62.036     4.1208    10.5521     80.801    176.726 102.931533     0.0787     0.2747     1.3025   2853.297  0.000e+00
     62.129     4.1190    10.5452     80.745    176.885 103.017646     0.0788     0.2716     1.3025   2853.309  0.000e+00
     62.211     4.1180    10.5454     80.744    176.891 103.017647     0.0788     0.2777     1.3037   2853.309  0.000e+00
     62.275     4.1180    10.5491     80.772    176.891 103.017648     0.0788     0.2747     1.3001   2853.309  0.000e+00
     62.333     4.1190    10.5551     80.820    176.737 102.931536     0.0787     0.2594     1.2805   2853.297  0.000e+00
     62.380     4.1209    10.5604     80.865    176.873 103.017648     0.0788     0.2594     1.2805   2853.309  0.000e+00
     62.441     4.1219    10.5619     80.879    176.867 103.017648     0.0788     0.2716     1.2805   2853.309  0.000e+00
     62.530     4.1209    10.5706     80.943    176.725 102.931537     0.0787     0.2747     1.2842   2853.297  0.000e+00
     62.638     4.1196    10.5718     80.950    176.881 103.017651     0.0788     0.2747     1.2842   2853.309  0.000e+00
     62.753     4.1180    10.5715     80.944    176.644 102.874132     0.0787     0.2686     1.2818   2853.289  0.000e+00
     62.867     4.1166    10.5737     80.958    177.047 103.103767     0.0789     0.2655     1.2854   2853.320  0.000e+00
     62.960     4.1169    10.5770     80.983    177.046 103.103767     0.0789     0.2777     1.2818   2853.320  0.000e+00
     63.026     4.1170    10.5806     81.011    176.897 103.017656     0.0788     0.2777     1.3025   2853.309  0.000e+00
     63.080     4.1163    10.5895     81.078    176.901 103.017656     0.0788     0.2686     1.3050   2853.309  0.000e+00
     63.132     4.1164    10.5915     81.094    177.048 103.103769     0.0789     0.2808     1.2988   2853.320  0.000e+00
     63.197     4.1157    10.5963     81.128    177.053 103.103770     0.0789     0.2747     1.3074   2853.320  0.000e+00
     63.285     4.1152    10.6058     81.200    177.056 103.103771     0.0789     0.2655     1.2988   2853.320  0.000e+00
     63.396     4.1153    10.6144     81.266    176.907 103.017660     0.0788     0.2716     1.3025   2853.309  0.000e+00
     63.515     4.1144    10.6235     81.334    176.913 103.017661     0.0788     0.2808     1.3025   2853.309  0.000e+00
     63.631     4.1146    10.6173     81.287    176.911 103.017662     0.0788     0.2747     1.3025   2853.309  0.000e+00
     63.725     4.1152    10.6159     81.278    176.908 103.017663     0.0788     0.2777     1.2805   2853.309  0.000e+00
     63.793     4.1153    10.6208     81.316    177.055 103.103776     0.0789     0.2747     1.2842   2853.320  0.000e+00
     63.847     4.1157    10.6142     81.266    176.905 103.017664     0.0788     0.2716     1.2830   2853.309  0.000e+00
     63.892     4.1161    10.6058     81.202    177.050 103.103777     0.0789     0.2686     1.2830   2853.320  0.000e+00
     63.946     4.1158    10.5972     81.136    177.200 103.189890     0.0790     0.2594     1.3001   2853.332  0.000e+00
     64.017     4.1165    10.5948     81.119    177.048 103.103778     0.0789     0.2716     1.3001   2853.320  0.000e+00
     64.111     4.1172    10.5923     81.102    177.044 103.103779     0.0789     0.2686     1.3025   2853.320  0.000e+00
     64.237     4.1164    10.5930     81.105    176.901 103.017667     0.0788     0.2777     1.3013   2853.309  0.000e+00
     64.369     4.1157    10.5913     81.090    177.053 103.103781     0.0789     0.2625     1.3025   2853.320  0.000e+00
     64.492     4.1149    10.5831     81.026    176.910 103.017670     0.0788     0.2716     1.3037   2853.309  0.000e+00
     64.598     4.1145    10.5845     81.036    177.060 103.103784     0.0789     0.2655     1.3001   2853.320  0.000e+00
     64.678     4.1135    10.5829     81.022    177.214 103.189898     0.0790     0.2777     1.2976   2853.332  0.000e+00
     64.740     4.1080    10.5878     81.047    177.247 103.189901     0.0790     0.2655     1.3013   2853.332  0.000e+00
     64.785     4.1033    10.5857     81.021    177.424 103.276016     0.0790     0.2777     1.3001   2853.344  0.000e+00
     64.825     4.1010    10.5880     81.034    177.290 103.189904     0.0790     0.2686     1.3025   2853.332  0.000e+00
     64.880     4.0996    10.5884     81.034    177.299 103.189905     0.0790     0.2747     1.3013   2853.332  0.000e+00
     64.960     4.0993    10.5909     81.053    177.300 103.189906     0.0790     0.2716     1.3025   2853.332  0.000e+00
     65.065     4.1003    10.5883     81.035    177.294 103.189906     0.0790     0.2686     1.3025   2853.332  0.000e+00
     65.187     4.0996    10.5836     80.997    177.299 103.189908     0.0790     0.2686     1.3025   2853.332  0.000e+00
     65.313     4.0988    10.5747     80.927    177.451 103.276022     0.0791     0.2777     1.3025   2853.344  0.000e+00
     65.431     4.0982    10.5664     80.863    177.307 103.189911     0.0790     0.2716     1.3037   2853.332  0.000e+00
     65.532     4.0973    10.5627     80.832    177.461 103.276025     0.0791     0.2716     1.3001   2853.344  0.000e+00
     65.610     4.0967    10.5620     80.826    177.465 103.276026     0.0791     0.2716     1.3025   2853.344  0.000e+00
     65.661     4.0956    10.5640     80.839    177.668 103.390845     0.0791     0.2747     1.3013   2853.359  0.000e+00
     65.695     4.0947    10.5689     80.874    177.329 103.189914     0.0790     0.2625     1.3233   2853.332  0.000e+00
     65.729     4.0949    10.5774     80.940    177.476 103.276028     0.0791     0.2747     1.3245   2853.344  0.000e+00
     65.783     4.0945    10.5828     80.980    177.478 103.276028     0.0791     0.2777     1.3257   2853.344  0.000e+00
     65.856     4.0942    10.5906     81.039    177.775 103.448257     0.0792     0.2777     1.3220   2853.367  0.000e+00
     65.955     4.0946    10.5989     81.104    177.477 103.276030     0.0791     0.2747     1.3013   2853.344  0.000e+00
     66.079     4.0944    10.6040     81.142    177.479 103.276031     0.0791     0.2686     1.3001   2853.344  0.000e+00
     66.224     4.0941    10.6051     81.150    177.431 103.247328     0.0790     0.2716     1.3013   2853.340  0.000e+00
     66.355     4.0942    10.6074     81.168    177.479 103.276034     0.0791     0.2686     1.3013   2853.344  0.000e+00
     66.459     4.0943    10.6106     81.193    177.479 103.276035     0.0791     0.2808     1.3013   2853.344  0.000e+00
     66.530     4.0938    10.6066     81.161    177.482 103.276036     0.0791     0.2655     1.3001   2853.344  0.000e+00
     66.577     4.0941    10.6113     81.198    177.480 103.276036     0.0791     0.2838     1.2988   2853.344  0.000e+00
     66.611     4.0940    10.6106     81.192    177.481 103.276037     0.0791     0.2686     1.3013   2853.344  0.000e+00
     66.644     4.0938    10.6064     81.160    177.482 103.276037     0.0791     0.2655     1.2976   2853.344  0.000e+00
     66.697     4.0938    10.6022     81.127    177.432 103.247333     0.0790     0.2716     1.3001   2853.340  0.000e+00
     66.772     4.0938    10.5996     81.107    177.482 103.276038     0.0791     0.2716     1.3037   2853.344  0.000e+00
     66.868     4.0939    10.5951     81.073    177.777 103.448267     0.0792     0.2777     1.2988   2853.367  0.000e+00
     66.979     4.0931    10.5956     81.076    177.782 103.448268     0.0792     0.2716     1.3013   2853.367  0.000e+00
     67.090     4.0917    10.5930     81.053    177.643 103.362156     0.0791     0.2777     1.3025   2853.355  0.000e+00
     67.203     4.0913    10.5903     81.031    177.793 103.448271     0.0792     0.2716     1.3025   2853.367  0.000e+00
     67.316     4.0910    10.5910     81.036    177.844 103.476977     0.0792     0.2716     1.2988   2853.371  0.000e+00
     67.424     4.0904    10.5980     81.088    177.799 103.448273     0.0792     0.2777     1.2988   2853.367  0.000e+00
     67.513     4.0907    10.5948     81.064    177.649 103.362160     0.0791     0.2716     1.3050   2853.355  0.000e+00
     67.578     4.0906    10.5955     81.069    177.946 103.534389     0.0793     0.2808     1.3025   2853.379  0.000e+00
     67.619     4.0904    10.5932     81.052    177.947 103.534390     0.0793     0.2747     1.3001   2853.379  0.000e+00
     67.644     4.0909    10.5934     81.054    177.648 103.362161     0.0791     0.2747     1.3013   2853.355  0.000e+00
     67.668     4.0910    10.5936     81.055    177.943 103.534390     0.0793     0.2655     1.2988   2853.379  0.000e+00
     67.719     4.0912    10.5939     81.058    177.695 103.390867     0.0792     0.2716     1.3050   2853.359  0.000e+00
     67.817     4.0922    10.5934     81.057    177.936 103.534391     0.0793     0.2747     1.3025   2853.379  0.000e+00
     67.953     4.0917    10.5886     81.018    177.643 103.362164     0.0791     0.2747     1.3013   2853.355  0.000e+00
     68.100     4.0911    10.5854     80.993    177.943 103.534394     0.0793     0.2564     1.3025   2853.379  0.000e+00
     68.232     4.0909    10.5889     81.019    178.092 103.620510     0.0793     0.2625     1.2988   2853.391  0.000e+00
     68.335     4.0903    10.5912     81.036    177.947 103.534397     0.0793     0.2655     1.2976   2853.379  0.000e+00
     68.410     4.0892    10.5921     81.041    178.250 103.706627     0.0794     0.2747     1.3025   2853.402  0.000e+00
     68.461     4.0881    10.5969     81.075    178.109 103.620513     0.0793     0.2747     1.3025   2853.391  0.000e+00
     68.504     4.0868    10.5931     81.043    178.265 103.706629     0.0794     0.2747     1.2988   2853.402  0.000e+00
     68.557     4.0861    10.5875     80.999    178.516 103.850156     0.0795     0.2808     1.3013   2853.422  0.000e+00
     68.633     4.0855    10.5879     81.000    178.372 103.764041     0.0795     0.2716     1.3050   2853.410  0.000e+00
     68.717     4.0838    10.5812     80.945    178.678 103.936274     0.0796     0.2655     1.3025   2853.434  0.000e+00
     68.792     4.0831    10.5725     80.878    178.534 103.850159     0.0795     0.2686     1.3025   2853.422  0.000e+00
     68.865     4.0829    10.5643     80.814    178.536 103.850160     0.0795     0.2716     1.3001   2853.422  0.000e+00
     68.933     4.0818    10.5640     80.810    178.542 103.850161     0.0795     0.2747     1.3050   2853.422  0.000e+00
     69.008     4.0819    10.5576     80.761    178.690 103.936278     0.0796     0.2686     1.3013   2853.434  0.000e+00
     69.098     4.0818    10.5593     80.774    178.839 104.022395     0.0797     0.2686     1.3013   2853.445  0.000e+00
     69.220     4.0811    10.5504     80.704    178.695 103.936280     0.0796     0.2686     1.3013   2853.434  0.000e+00
     69.364     4.0810    10.5372     80.604    178.695 103.936281     0.0796     0.2838     1.2988   2853.434  0.000e+00
     69.501     4.0808    10.5312     80.557    178.993 104.108516     0.0797     0.2716     1.3001   2853.457  0.000e+00
     69.600     4.0799    10.5177     80.452    179.146 104.194634     0.0798     0.2655     1.3001   2853.469  0.000e+00
     69.654     4.0796    10.5110     80.400    178.951 104.079812     0.0797     0.2716     1.3037   2853.453  0.000e+00
     69.662     4.0792    10.5098     80.389    179.151 104.194635     0.0798     0.2686     1.3025   2853.469  0.000e+00
     69.659     4.0784    10.5100     80.390    179.007 104.108518     0.0797     0.2838     1.3025   2853.457  0.000e+00
     69.676     4.0799    10.5128     80.415    178.850 104.022401     0.0797     0.2625     1.3001   2853.445  0.000e+00
     69.733     4.0809    10.5178     80.455    179.140 104.194635     0.0798     0.2747     1.3050   2853.469  0.000e+00
     69.842     4.0805    10.5295     80.544    179.143 104.194637     0.0798     0.2716     1.3220   2853.469  0.000e+00
     69.997     4.0799    10.5295     80.542    178.998 104.108521     0.0797     0.2777     1.3257   2853.457  0.000e+00
     70.153     4.0790    10.5277     80.526    179.103 104.165934     0.0798     0.2747     1.3233   2853.465  0.000e+00
     70.292     4.0780    10.5227     80.486    179.158 104.194642     0.0798     0.2655     1.3233   2853.469  0.000e+00
     70.402     4.0786    10.5139     80.420    179.303 104.280760     0.0799     0.2686     1.3037   2853.480  0.000e+00
     70.484     4.0787    10.5124     80.409    179.302 104.280761     0.0799     0.2655     1.3013   2853.480  0.000e+00
     70.542     4.0791    10.5130     80.415    179.299 104.280761     0.0799     0.2655     1.3025   2853.480  0.000e+00
     70.585     4.0796    10.5100     80.392    179.296 104.280762     0.0799     0.2747     1.3013   2853.480  0.000e+00
     70.630     4.0796    10.5117     80.406    179.346 104.309468     0.0799     0.2747     1.3037   2853.484  0.000e+00
     70.694     4.0795    10.5090     80.384    179.445 104.366880     0.0799     0.2625     1.3001   2853.492  0.000e+00
     70.774     4.0798    10.5058     80.361    179.295 104.280763     0.0799     0.2808     1.3025   2853.480  0.000e+00
     70.857     4.0792    10.5010     80.323    179.447 104.366882     0.0799     0.2716     1.3025   2853.492  0.000e+00
     70.955     4.0792    10.4954     80.279    179.299 104.280765     0.0799     0.2625     1.3001   2853.480  0.000e+00
     71.058     4.0794    10.4871     80.217    179.593 104.453002     0.0800     0.2808     1.3074   2853.504  0.000e+00
     71.176     4.0796    10.4863     80.211    179.296 104.280767     0.0799     0.2747     1.3037   2853.480  0.000e+00
     71.286     4.0807    10.4837     80.194    179.487 104.395592     0.0800     0.2686     1.3037   2853.496  0.000e+00
     71.387     4.0810    10.4825     80.185    179.584 104.453005     0.0800     0.2747     1.3001   2853.504  0.000e+00
     71.483     4.0803    10.4860     80.210    179.440 104.366888     0.0799     0.2594     1.3025   2853.492  0.000e+00
     71.566     4.0802    10.4815     80.176    179.441 104.366889     0.0799     0.2808     1.3013   2853.492  0.000e+00
     71.635     4.0801    10.4717     80.101    179.885 104.625245     0.0801     0.2716     1.3001   2853.527  0.000e+00
     71.701     4.0800    10.4868     80.216    179.590 104.453008     0.0800     0.2625     1.3001   2853.504  0.000e+00
     71.768     4.0805    10.4733     80.113    179.587 104.453009     0.0800     0.2716     1.3037   2853.504  0.000e+00
     71.842     4.0806    10.4708     80.094    179.636 104.481716     0.0800     0.2716     1.3025   2853.508  0.000e+00
     71.917     4.0804    10.4652     80.051    179.587 104.453010     0.0800     0.2808     1.3025   2853.504  0.000e+00
     71.995     4.0807    10.4584     80.000    179.586 104.453011     0.0800     0.2716     1.3233   2853.504  0.000e+00
     72.081     4.0805    10.4587     80.002    179.587 104.453012     0.0800     0.2716     1.3220   2853.504  0.000e+00
     72.190     4.0799    10.4561     79.981    179.738 104.539132     0.0801     0.2747     1.3220   2853.516  0.000e+00
     72.311     4.0806    10.4513     79.945    179.735 104.539133     0.0801     0.2716     1.3208   2853.516  0.000e+00
     72.429     4.0803    10.4508     79.941    179.736 104.539134     0.0801     0.2716     1.3013   2853.516  0.000e+00
     72.535     4.0798    10.4536     79.961    179.887 104.625254     0.0801     0.2686     1.3013   2853.527  0.000e+00
     72.612     4.0797    10.4552     79.973    179.592 104.453017     0.0800     0.2564     1.3037   2853.504  0.000e+00
     72.668     4.0792    10.4555     79.975    179.891 104.625255     0.0801     0.2686     1.3037   2853.527  0.000e+00
     72.706     4.0786    10.4582     79.994    179.747 104.539137     0.0801     0.2625     1.3220   2853.516  0.000e+00
     72.745     4.0793    10.4572     79.988    179.742 104.539137     0.0801     0.2869     1.3196   2853.516  0.000e+00
     72.798     4.0791    10.4581     79.994    179.744 104.539138     0.0801     0.2716     1.3220   2853.516  0.000e+00
     72.889     4.0786    10.4560     79.977    179.895 104.625258     0.0801     0.2716     1.3269   2853.527  0.000e+00
     73.007     4.0788    10.4512     79.941    179.647 104.481728     0.0800     0.2747     1.3013   2853.508  0.000e+00
     73.137     4.0785    10.4482     79.918    179.747 104.539141     0.0801     0.2594     1.3025   2853.516  0.000e+00
     73.264     4.0779    10.4434     79.879    179.899 104.625262     0.0801     0.2625     1.3001   2853.527  0.000e+00
     73.376     4.0783    10.4432     79.878    179.897 104.625263     0.0801     0.2808     1.2988   2853.527  0.000e+00
     73.481     4.0779    10.4404     79.857    179.751 104.539145     0.0801     0.2808     1.3037   2853.516  0.000e+00
     73.558     4.0771    10.4369     79.828    179.756 104.539146     0.0801     0.2716     1.3013   2853.516  0.000e+00
     73.616     4.0776    10.4358     79.821    179.753 104.539146     0.0801     0.2777     1.3025   2853.516  0.000e+00
     73.664     4.0774    10.4347     79.812    179.754 104.539147     0.0801     0.2686     1.3050   2853.516  0.000e+00
     73.710     4.0774    10.4314     79.786    179.902 104.625266     0.0801     0.2686     1.3196   2853.527  0.000e+00
     73.763     4.0776    10.4302     79.778    180.049 104.711386     0.0802     0.2655     1.3220   2853.539  0.000e+00
     73.829     4.0774    10.4210     79.707    179.902 104.625267     0.0801     0.2777     1.3220   2853.527  0.000e+00
     73.911     4.0772    10.4131     79.647    179.755 104.539149     0.0801     0.2655     1.3208   2853.516  0.000e+00
     74.019     4.0777    10.4139     79.653    180.048 104.711388     0.0802     0.2625     1.3208   2853.539  0.000e+00
     74.144     4.0771    10.4101     79.623    179.756 104.539152     0.0801     0.2655     1.3208   2853.516  0.000e+00
     74.279     4.0766    10.4125     79.640    180.055 104.711391     0.0802     0.2747     1.3233   2853.539  0.000e+00
     74.403     4.0762    10.4115     79.631    179.910 104.625274     0.0801     0.2777     1.3220   2853.527  0.000e+00
     74.498     4.0743    10.4154     79.658    179.921 104.625275     0.0802     0.2716     1.3001   2853.527  0.000e+00
     74.564     4.0738    10.4175     79.673    180.073 104.711395     0.0802     0.2655     1.3025   2853.539  0.000e+00
     74.605     4.0741    10.4145     79.651    180.071 104.711395     0.0802     0.2716     1.3025   2853.539  0.000e+00
     74.643     4.0733    10.4159     79.660    180.520 104.969756     0.0804     0.2655     1.3025   2853.574  0.000e+00
     74.694     4.0735    10.4152     79.654    180.173 104.768810     0.0803     0.2747     1.3208   2853.547  0.000e+00
     74.770     4.0736    10.4144     79.649    180.222 104.797517     0.0803     0.2747     1.3245   2853.551  0.000e+00
     74.875     4.0725    10.4106     79.617    180.229 104.797518     0.0803     0.2808     1.3208   2853.551  0.000e+00
     74.993     4.0725    10.4072     79.591    180.377 104.883639     0.0804     0.2838     1.3245   2853.563  0.000e+00
     75.112     4.0725    10.4063     79.584    180.229 104.797521     0.0803     0.2747     1.3013   2853.551  0.000e+00
     75.220     4.0720    10.4015     79.547    180.232 104.797522     0.0803     0.2716     1.2976   2853.551  0.000e+00
     75.323     4.0718    10.3991     79.528    180.381 104.883643     0.0804     0.2777     1.3025   2853.563  0.000e+00
     75.412     4.0719    10.3941     79.490    180.331 104.854937     0.0803     0.2625     1.3050   2853.559  0.000e+00
     75.485     4.0715    10.3840     79.412    180.235 104.797525     0.0803     0.2686     1.2988   2853.551  0.000e+00
     75.540     4.0715    10.3750     79.343    180.235 104.797525     0.0803     0.2655     1.2988   2853.551  0.000e+00
     75.595     4.0719    10.3721     79.322    180.381 104.883646     0.0804     0.2686     1.3050   2853.563  0.000e+00
     75.657     4.0715    10.3604     79.231    180.679 105.055887     0.0805     0.2716     1.3013   2853.586  0.000e+00
     75.731     4.0715    10.3532     79.176    180.383 104.883647     0.0804     0.2655     1.3208   2853.563  0.000e+00
     75.822     4.0720    10.3451     79.115    180.528 104.969768     0.0804     0.2716     1.3245   2853.574  0.000e+00
     75.929     4.0710    10.3444     79.108    180.485 104.941063     0.0804     0.2747     1.3233   2853.570  0.000e+00
     76.045     4.0713    10.3472     79.130    180.384 104.883650     0.0804     0.2686     1.3184   2853.563  0.000e+00
     76.161     4.0716    10.3534     79.178    180.382 104.883651     0.0804     0.2747     1.3245   2853.563  0.000e+00
     76.257     4.0712    10.3545     79.185    180.533 104.969773     0.0804     0.2747     1.3208   2853.574  0.000e+00
     76.329     4.0714    10.3544     79.185    180.828 105.142015     0.0806     0.2747     1.3196   2853.598  0.000e+00
     76.386     4.0717    10.3618     79.242    180.530 104.969774     0.0804     0.2716     1.3233   2853.574  0.000e+00
     76.431     4.0713    10.3576     79.210    180.829 105.142016     0.0806     0.2899     1.2988   2853.598  0.000e+00
     76.481     4.0713    10.3584     79.216    180.828 105.142017     0.0806     0.2716     1.3013   2853.598  0.000e+00
     76.546     4.0713    10.3510     79.159    180.828 105.142017     0.0806     0.2747     1.3062   2853.598  0.000e+00
     76.626     4.0708    10.3449     79.112    181.227 105.371676     0.0807     0.2716     1.3013   2853.629  0.000e+00
     76.728     4.0709    10.3418     79.088    181.078 105.285555     0.0807     0.2686     1.3233   2853.617  0.000e+00
     76.825     4.0708    10.3425     79.093    181.078 105.285556     0.0807     0.2747     1.3245   2853.617  0.000e+00
     76.928     4.0707    10.3481     79.136    180.980 105.228143     0.0806     0.2777     1.3220   2853.609  0.000e+00
     77.032     4.0707    10.3493     79.145    181.129 105.314265     0.0807     0.2686     1.3233   2853.621  0.000e+00
     77.136     4.0709    10.3543     79.184    181.078 105.285559     0.0807     0.2686     1.3233   2853.617  0.000e+00
     77.236     4.0708    10.3636     79.254    181.079 105.285560     0.0807     0.2686     1.3196   2853.617  0.000e+00
     77.317     4.0706    10.3631     79.250    180.981 105.228146     0.0806     0.2655     1.3233   2853.609  0.000e+00
     77.373     4.0708    10.3654     79.268    181.375 105.457806     0.0808     0.2686     1.3245   2853.641  0.000e+00
     77.416     4.0703    10.3618     79.240    181.082 105.285562     0.0807     0.2747     1.3245   2853.617  0.000e+00
     77.461     4.0706    10.3605     79.230    181.228 105.371684     0.0807     0.2655     1.3245   2853.629  0.000e+00
     77.530     4.0709    10.3580     79.212    181.128 105.314270     0.0807     0.2686     1.3245   2853.621  0.000e+00
     77.625     4.0706    10.3581     79.212    180.981 105.228149     0.0806     0.2716     1.3233   2853.609  0.000e+00
     77.749     4.0708    10.3538     79.180    181.227 105.371687     0.0807     0.2686     1.3269   2853.629  0.000e+00
     77.913     4.0711    10.3508     79.157    180.978 105.228152     0.0806     0.2747     1.3220   2853.609  0.000e+00
     78.090     4.0707    10.3514     79.161    181.079 105.285568     0.0807     0.2686     1.3208   2853.617  0.000e+00
     78.227     4.0706    10.3468     79.126    181.080 105.285570     0.0807     0.2686     1.3208   2853.617  0.000e+00
     78.314     4.0708    10.3453     79.115    181.079 105.285571     0.0807     0.2625     1.2988   2853.617  0.000e+00
     78.359     4.0705    10.3477     79.132    180.834 105.142035     0.0806     0.2747     1.3037   2853.598  0.000e+00
     78.375     4.0709    10.3554     79.192    180.831 105.142035     0.0806     0.2655     1.3001   2853.598  0.000e+00
     78.375     4.0714    10.3563     79.200    180.976 105.228157     0.0806     0.2686     1.3013   2853.609  0.000e+00
     78.399     4.0715    10.3654     79.269    181.074 105.285571     0.0807     0.2777     1.3220   2853.617  0.000e+00
     78.466     4.0717    10.3645     79.263    180.974 105.228157     0.0806     0.2655     1.3233   2853.609  0.000e+00
     78.584     4.0721    10.3703     79.308    181.071 105.285573     0.0807     0.2686     1.3184   2853.617  0.000e+00
     78.754     4.0713    10.3718     79.318    181.224 105.371697     0.0807     0.2686     1.3245   2853.629  0.000e+00
     78.952     4.0711    10.3710     79.312    180.978 105.228162     0.0806     0.2686     1.3233   2853.609  0.000e+00
     79.126     4.0713    10.3692     79.298    181.075 105.285578     0.0807     0.2686     1.3257   2853.617  0.000e+00
     79.245     4.0707    10.3700     79.303    181.079 105.285580     0.0807     0.2655     1.3245   2853.617  0.000e+00
     79.299     4.0706    10.3726     79.323    181.080 105.285580     0.0807     0.2747     1.3220   2853.617  0.000e+00
     79.310     4.0711    10.3757     79.348    181.077 105.285580     0.0807     0.2686     1.3208   2853.617  0.000e+00
     79.299     4.0708    10.3805     79.384    181.079 105.285580     0.0807     0.2747     1.3220   2853.617  0.000e+00
     79.303     4.0715    10.3765     79.355    181.074 105.285580     0.0807     0.2655     1.3233   2853.617  0.000e+00
     79.349     4.0722    10.3799     79.382    180.971 105.228166     0.0806     0.2686     1.3245   2853.609  0.000e+00
     79.442     4.0723    10.3746     79.342    180.675 105.055924     0.0805     0.2716     1.2988   2853.586  0.000e+00
     79.581     4.0717    10.3742     79.338    181.073 105.285583     0.0807     0.2747     1.3013   2853.617  0.000e+00
     79.758     4.0716    10.3740     79.336    181.074 105.285585     0.0807     0.2625     1.2988   2853.617  0.000e+00
     79.929     4.0710    10.3672     79.283    181.077 105.285587     0.0807     0.2686     1.3037   2853.617  0.000e+00
     80.073     4.0710    10.3672     79.283    181.077 105.285588     0.0807     0.2777     1.3233   2853.617  0.000e+00
     80.174     4.0713    10.3644     79.262    180.829 105.142053     0.0806     0.2747     1.3233   2853.598  0.000e+00
     80.228     4.0713    10.3700     79.304    181.076 105.285589     0.0807     0.2655     1.3220   2853.617  0.000e+00
     80.247     4.0710    10.3739     79.334    181.078 105.285590     0.0807     0.2747     1.3257   2853.617  0.000e+00
     80.248     4.0716    10.3742     79.337    181.074 105.285589     0.0807     0.2777     1.3220   2853.617  0.000e+00
     80.275     4.0716    10.3716     79.318    181.222 105.371712     0.0807     0.2686     1.3208   2853.629  0.000e+00
     80.341     4.0717    10.3682     79.292    181.073 105.285590     0.0807     0.2625     1.3233   2853.617  0.000e+00
     80.447     4.0720    10.3662     79.277    181.220 105.371713     0.0807     0.2686     1.3196   2853.629  0.000e+00
     80.581     4.0715    10.3618     79.243    181.124 105.314300     0.0807     0.2716     1.3233   2853.621  0.000e+00
     80.721     4.0708    10.3538     79.180    180.980 105.228180     0.0806     0.2655     1.3208   2853.609  0.000e+00
     80.850     4.0708    10.3414     79.085    180.980 105.228181     0.0806     0.2686     1.3220   2853.609  0.000e+00
     80.957     4.0713    10.3401     79.076    180.977 105.228182     0.0806     0.2777     1.3257   2853.609  0.000e+00
     81.035     4.0708    10.3411     79.083    181.227 105.371720     0.0807     0.2716     1.3257   2853.629  0.000e+00
     81.098     4.0710    10.3463     79.122    181.226 105.371720     0.0807     0.2625     1.3245   2853.629  0.000e+00
     81.150     4.0711    10.3525     79.170    181.077 105.285599     0.0807     0.2716     1.3184   2853.617  0.000e+00
     81.200     4.0707    10.3551     79.189    181.376 105.457844     0.0808     0.2716     1.3245   2853.641  0.000e+00
     81.259     4.0706    10.3572     79.206    181.969 105.802337     0.0811     0.2716     1.3233   2853.688  0.000e+00
     81.321     4.0704    10.3603     79.229    182.414 106.060711     0.0813     0.2747     1.3245   2853.723  0.000e+00
     81.393     4.0690    10.3648     79.261    182.571 106.146838     0.0814     0.2716     1.3208   2853.734  0.000e+00
     81.476     4.0681    10.3622     79.239    182.577 106.146839     0.0814     0.2747     1.3220   2853.734  0.000e+00
     81.570     4.0681    10.3624     79.240    182.725 106.232966     0.0814     0.2686     1.3233   2853.746  0.000e+00
     81.672     4.0674    10.3629     79.242    182.730 106.232967     0.0814     0.2625     1.3208   2853.746  0.000e+00
     81.789     4.0672    10.3596     79.217    182.730 106.232968     0.0814     0.2655     1.3208   2853.746  0.000e+00
     81.908     4.0676    10.3536     79.172    183.173 106.491348     0.0816     0.2686     1.3220   2853.781  0.000e+00
     82.013     4.0663    10.3435     79.092    183.329 106.577476     0.0817     0.2686     1.3233   2853.793  0.000e+00
     82.094     4.0659    10.3260     78.958    183.332 106.577477     0.0817     0.2686     1.3245   2853.793  0.000e+00
     82.154     4.0659    10.3086     78.824    183.331 106.577478     0.0817     0.2686     1.3233   2853.793  0.000e+00
     82.198     4.0653    10.2986     78.747    183.335 106.577479     0.0817     0.2625     1.3220   2853.793  0.000e+00
     82.234     4.0652    10.2845     78.639    183.385 106.606188     0.0817     0.2747     1.3538   2853.797  0.000e+00
     82.286     4.0653    10.2742     78.560    183.335 106.577479     0.0817     0.2777     1.3550   2853.793  0.000e+00
     82.351     4.0652    10.2654     78.493    183.484 106.663608     0.0818     0.2655     1.3574   2853.805  0.000e+00
     82.436     4.0649    10.2602     78.452    183.486 106.663608     0.0818     0.2716     1.3550   2853.805  0.000e+00
     82.527     4.0651    10.2492     78.369    183.485 106.663609     0.0818     0.2686     1.3269   2853.805  0.000e+00
     82.637     4.0650    10.2408     78.304    183.485 106.663610     0.0818     0.2686     1.3233   2853.805  0.000e+00
     82.746     4.0645    10.2260     78.190    183.488 106.663612     0.0818     0.2747     1.3208   2853.805  0.000e+00
     82.853     4.0648    10.2148     78.105    183.635 106.749740     0.0818     0.2625     1.3184   2853.816  0.000e+00
     82.942     4.0649    10.2071     78.046    183.733 106.807160     0.0819     0.2747     1.3220   2853.824  0.000e+00
     83.017     4.0643    10.1992     77.985    183.638 106.749742     0.0818     0.2686     1.3245   2853.816  0.000e+00
     83.082     4.0644    10.1931     77.938    183.637 106.749743     0.0818     0.2716     1.3257   2853.816  0.000e+00
     83.142     4.0646    10.1866     77.889    183.636 106.749743     0.0818     0.2716     1.3196   2853.816  0.000e+00
     83.205     4.0641    10.1817     77.851    183.738 106.807163     0.0819     0.2838     1.3404   2853.824  0.000e+00
     83.283     4.0641    10.1766     77.812    183.886 106.893292     0.0820     0.2594     1.3452   2853.836  0.000e+00
     83.376     4.0645    10.1659     77.730    183.637 106.749746     0.0818     0.2686     1.3416   2853.816  0.000e+00
     83.470     4.0642    10.1520     77.623    183.738 106.807165     0.0819     0.2655     1.3416   2853.824  0.000e+00
     83.565     4.0638    10.1373     77.510    183.641 106.749748     0.0818     0.2655     1.3245   2853.816  0.000e+00
     83.656     4.0640    10.1276     77.436    183.739 106.807167     0.0819     0.2686     1.3233   2853.824  0.000e+00
     83.747     4.0639    10.1161     77.348    183.740 106.807168     0.0819     0.2716     1.3208   2853.824  0.000e+00
     83.834     4.0635    10.1093     77.296    183.643 106.749751     0.0818     0.2716     1.3233   2853.816  0.000e+00
     83.908     4.0639    10.1053     77.265    183.641 106.749751     0.0818     0.2777     1.3452   2853.816  0.000e+00
     83.970     4.0641    10.1031     77.249    183.639 106.749752     0.0818     0.2777     1.3379   2853.816  0.000e+00
     84.039     4.0637    10.1071     77.279    183.642 106.749753     0.0818     0.2655     1.3428   2853.816  0.000e+00
     84.119     4.0640    10.1089     77.293    183.739 106.807172     0.0819     0.2625     1.3440   2853.824  0.000e+00
     84.210     4.0641    10.1115     77.314    183.639 106.749754     0.0818     0.2716     1.3391   2853.816  0.000e+00
     84.300     4.0638    10.1174     77.358    183.641 106.749755     0.0818     0.2686     1.3428   2853.816  0.000e+00
     84.383     4.0639    10.1160     77.348    183.641 106.749756     0.0818     0.2686     1.3440   2853.816  0.000e+00
     84.453     4.0640    10.1235     77.405    183.640 106.749757     0.0818     0.2716     1.3379   2853.816  0.000e+00
     84.498     4.0635    10.1279     77.437    183.495 106.663630     0.0818     0.2777     1.3220   2853.805  0.000e+00
     84.540     4.0638    10.1321     77.471    183.740 106.807176     0.0819     0.2655     1.3196   2853.824  0.000e+00
     84.592     4.0639    10.1335     77.482    183.740 106.807177     0.0819     0.2777     1.3257   2853.824  0.000e+00
     84.677     4.0637    10.1366     77.504    183.741 106.807178     0.0819     0.2716     1.3233   2853.824  0.000e+00
     84.791     4.0635    10.1287     77.444    183.643 106.749760     0.0818     0.2747     1.3440   2853.816  0.000e+00
     84.905     4.0640    10.1415     77.543    183.739 106.807180     0.0819     0.2686     1.3416   2853.824  0.000e+00
     85.000     4.0641    10.1245     77.413    183.639 106.749762     0.0818     0.2747     1.3404   2853.816  0.000e+00
     85.064     4.0637    10.1378     77.514    183.889 106.893310     0.0820     0.2686     1.3416   2853.836  0.000e+00
     85.115     4.0638    10.1190     77.370    183.888 106.893310     0.0820     0.2777     1.3404   2853.836  0.000e+00
     85.158     4.0639    10.1405     77.535    183.740 106.807182     0.0819     0.2625     1.3416   2853.824  0.000e+00
     85.203     4.0636    10.1493     77.602    183.642 106.749764     0.0818     0.2655     1.3391   2853.816  0.000e+00
     85.279     4.0638    10.1379     77.515    183.641 106.749765     0.0818     0.2777     1.3416   2853.816  0.000e+00
     85.388     4.0642    10.1320     77.471    183.639 106.749766     0.0818     0.2747     1.3440   2853.816  0.000e+00
     85.508     4.0637    10.1180     77.363    183.642 106.749767     0.0818     0.2777     1.3465   2853.816  0.000e+00
     85.611     4.0634    10.1290     77.446    183.644 106.749769     0.0818     0.2747     1.3416   2853.816  0.000e+00
     85.694     4.0637    10.1088     77.293    183.741 106.807188     0.0819     0.2716     1.3391   2853.824  0.000e+00
     85.759     4.0637    10.1175     77.359    183.741 106.807189     0.0819     0.2655     1.3208   2853.824  0.000e+00
     85.799     4.0633    10.1474     77.587    183.743 106.807189     0.0819     0.2686     1.3208   2853.824  0.000e+00
     85.831     4.0639    10.1201     77.379    183.740 106.807189     0.0819     0.2625     1.3220   2853.824  0.000e+00
     85.877     4.0638    10.1502     77.609    183.740 106.807190     0.0819     0.2686     1.3208   2853.824  0.000e+00
     85.955     4.0633    10.1315     77.465    183.792 106.835900     0.0819     0.2686     1.3428   2853.828  0.000e+00
     86.062     4.0637    10.1699     77.759    183.642 106.749773     0.0818     0.2564     1.3391   2853.816  0.000e+00
     86.181     4.0637    10.1534     77.633    183.889 106.893321     0.0820     0.2655     1.3404   2853.836  0.000e+00
     86.298     4.0635    10.1360     77.499    183.643 106.749775     0.0818     0.2716     1.3416   2853.816  0.000e+00
     86.392     4.0633    10.1240     77.407    183.644 106.749776     0.0818     0.2655     1.3233   2853.816  0.000e+00
     86.479     4.0638    10.1168     77.353    183.740 106.807196     0.0819     0.2808     1.3245   2853.824  0.000e+00
     86.558     4.0637    10.1254     77.419    183.741 106.807197     0.0819     0.2869     1.3220   2853.824  0.000e+00
     86.627     4.0631    10.1182     77.363    183.645 106.749779     0.0818     0.2686     1.3233   2853.816  0.000e+00
     86.692     4.0636    10.0967     77.199    183.642 106.749779     0.0818     0.2777     1.3440   2853.816  0.000e+00
     86.748     4.0637    10.1091     77.294    183.642 106.749780     0.0818     0.2686     1.3404   2853.816  0.000e+00
     86.792     4.0631    10.0866     77.121    183.744 106.807199     0.0819     0.2716     1.3428   2853.824  0.000e+00
     86.833     4.0635    10.0939     77.178    183.742 106.807199     0.0819     0.2808     1.3428   2853.824  0.000e+00
     86.891     4.0638    10.1198     77.376    183.740 106.807200     0.0819     0.2777     1.3440   2853.824  0.000e+00
     86.967     4.0633    10.1127     77.321    183.793 106.835910     0.0819     0.2655     1.3404   2853.828  0.000e+00
     87.059     4.0633    10.1096     77.298    183.644 106.749783     0.0818     0.2625     1.3416   2853.816  0.000e+00
     87.154     4.0639    10.1016     77.237    183.641 106.749784     0.0818     0.2625     1.3440   2853.816  0.000e+00
     87.243     4.0634    10.1081     77.286    183.742 106.807204     0.0819     0.2808     1.3196   2853.824  0.000e+00
     87.334     4.0631    10.1106     77.305    183.645 106.749786     0.0818     0.2655     1.3245   2853.816  0.000e+00
     87.421     4.0637    10.1238     77.407    183.741 106.807205     0.0819     0.2716     1.3233   2853.824  0.000e+00
     87.500     4.0634    10.1167     77.352    183.643 106.749787     0.0818     0.2747     1.3269   2853.816  0.000e+00
     87.577     4.0632    10.1015     77.235    183.793 106.835916     0.0819     0.2747     1.3245   2853.828  0.000e+00
     87.646     4.0633    10.1219     77.392    183.743 106.807208     0.0819     0.2716     1.3208   2853.824  0.000e+00
     87.715     4.0637    10.1201     77.378    183.741 106.807208     0.0819     0.2625     1.3245   2853.824  0.000e+00
     87.782     4.0632    10.1322     77.470    183.892 106.893337     0.0820     0.2686     1.3245   2853.836  0.000e+00
     87.851     4.0631    10.1275     77.434    183.744 106.807210     0.0819     0.2777     1.3404   2853.824  0.000e+00
     87.927     4.0634    10.1107     77.306    183.742 106.807210     0.0819     0.2716     1.3440   2853.824  0.000e+00
     88.015     4.0635    10.1038     77.254    183.742 106.807211     0.0819     0.2716     1.3440   2853.824  0.000e+00
     88.100     4.0632    10.1056     77.267    183.793 106.835922     0.0819     0.2808     1.3440   2853.828  0.000e+00
     88.182     4.0634    10.1164     77.350    183.643 106.749794     0.0818     0.2716     1.3416   2853.816  0.000e+00
     88.261     4.0637    10.1109     77.308    183.889 106.893342     0.0819     0.2747     1.3416   2853.836  0.000e+00
     88.339     4.0632    10.1039     77.254    183.743 106.807215     0.0819     0.2686     1.3428   2853.824  0.000e+00
     88.414     4.0632    10.1022     77.241    183.645 106.749797     0.0818     0.2716     1.3452   2853.816  0.000e+00
     88.489     4.0635    10.1123     77.319    183.742 106.807216     0.0819     0.2625     1.3416   2853.824  0.000e+00
     88.557     4.0632    10.1245     77.411    183.744 106.807217     0.0819     0.2716     1.3379   2853.824  0.000e+00
     88.636     4.0629    10.1237     77.405    183.795 106.835927     0.0819     0.2777     1.3428   2853.828  0.000e+00
     88.734     4.0634    10.1216     77.389    183.743 106.807219     0.0819     0.2625     1.3404   2853.824  0.000e+00
     88.845     4.0634    10.1238     77.406    183.644 106.749801     0.0818     0.2716     1.3428   2853.816  0.000e+00
     88.944     4.0632    10.1215     77.389    183.744 106.807221     0.0819     0.2655     1.3416   2853.824  0.000e+00
     89.032     4.0633    10.1415     77.542    183.743 106.807222     0.0819     0.2747     1.3416   2853.824  0.000e+00
     89.132     4.0637    10.1340     77.485    183.642 106.749804     0.0818     0.2655     1.3513   2853.816  0.000e+00
     89.218     4.0633    10.1285     77.442    183.792 106.835933     0.0819     0.2716     1.3416   2853.828  0.000e+00
     89.289     4.0630    10.1399     77.529    183.893 106.893353     0.0819     0.2655     1.3416   2853.836  0.000e+00
     89.344     4.0634    10.1253     77.418    183.743 106.807225     0.0819     0.2777     1.3452   2853.824  0.000e+00
     89.399     4.0637    10.1130     77.324    183.741 106.807225     0.0819     0.2716     1.3452   2853.824  0.000e+00
     89.461     4.0631    10.1243     77.410    183.498 106.663679     0.0818     0.2686     1.3416   2853.805  0.000e+00
     89.530     4.0630    10.1121     77.316    183.745 106.807227     0.0819     0.2747     1.3465   2853.824  0.000e+00
     89.613     4.0637    10.1037     77.253    183.642 106.749809     0.0818     0.2716     1.3465   2853.816  0.000e+00
     89.718     4.0633    10.1039     77.254    183.792 106.835938     0.0819     0.2686     1.3452   2853.828  0.000e+00
     89.833     4.0629    10.1027     77.244    183.745 106.807230     0.0819     0.2777     1.3208   2853.824  0.000e+00
     89.958     4.0634    10.1117     77.314    183.495 106.663684     0.0818     0.2655     1.3245   2853.805  0.000e+00
     90.085     4.0633    10.1080     77.286    183.743 106.807232     0.0819     0.2655     1.3233   2853.824  0.000e+00
     90.194     4.0631    10.1047     77.260    183.744 106.807233     0.0819     0.2716     1.3208   2853.824  0.000e+00
     90.283     4.0633    10.1068     77.276    183.644 106.749815     0.0818     0.2686     1.3257   2853.816  0.000e+00
     90.350     4.0635    10.1176     77.359    183.742 106.807235     0.0819     0.2655     1.3208   2853.824  0.000e+00
     90.393     4.0631    10.1154     77.342    183.892 106.893364     0.0819     0.2716     1.3208   2853.836  0.000e+00
     90.421     4.0630    10.1204     77.379    183.646 106.749817     0.0818     0.2747     1.3233   2853.816  0.000e+00
     90.460     4.0634    10.1154     77.343    183.742 106.807236     0.0819     0.2655     1.3208   2853.824  0.000e+00
     90.519     4.0632    10.1169     77.353    183.744 106.807236     0.0819     0.2625     1.3233   2853.824  0.000e+00
     90.603     4.0629    10.1227     77.397    183.894 106.893366     0.0819     0.2686     1.3208   2853.836  0.000e+00
     90.724     4.0630    10.1246     77.412    183.893 106.893367     0.0819     0.2686     1.3233   2853.836  0.000e+00
     90.870     4.0634    10.1144     77.335    183.743 106.807240     0.0819     0.2716     1.3245   2853.824  0.000e+00
     91.029     4.0633    10.1271     77.431    183.644 106.749823     0.0818     0.2655     1.3233   2853.816  0.000e+00
     91.176     4.0630    10.1206     77.381    183.745 106.807243     0.0819     0.2625     1.3233   2853.824  0.000e+00
     91.290     4.0630    10.1164     77.349    183.893 106.893373     0.0819     0.2686     1.3220   2853.836  0.000e+00
     91.361     4.0632    10.1153     77.341    183.645 106.749826     0.0818     0.2686     1.3220   2853.816  0.000e+00
     91.398     4.0630    10.1146     77.335    183.745 106.807245     0.0819     0.2808     1.3220   2853.824  0.000e+00
     91.412     4.0628    10.1123     77.317    183.746 106.807246     0.0819     0.2594     1.3233   2853.824  0.000e+00
     91.416     4.0635    10.1194     77.373    183.791 106.835955     0.0819     0.2747     1.3233   2853.828  0.000e+00
     91.440     4.0635    10.1143     77.334    183.643 106.749827     0.0818     0.2716     1.3428   2853.816  0.000e+00
     91.499     4.0633    10.1026     77.244    183.743 106.807246     0.0819     0.2716     1.3428   2853.824  0.000e+00
     91.598     4.0633    10.1008     77.231    183.644 106.749829     0.0818     0.2747     1.3428   2853.816  0.000e+00
     91.739     4.0635    10.0986     77.214    183.742 106.807249     0.0819     0.2747     1.3428   2853.824  0.000e+00
     91.910     4.0632    10.0948     77.185    183.744 106.807250     0.0819     0.2747     1.3428   2853.824  0.000e+00
     92.076     4.0627    10.0895     77.143    183.895 106.893381     0.0819     0.2747     1.3428   2853.836  0.000e+00
     92.199     4.0629    10.0844     77.104    183.894 106.893382     0.0819     0.2716     1.3452   2853.836  0.000e+00
     92.282     4.0625    10.0878     77.130    183.896 106.893383     0.0819     0.2655     1.3452   2853.836  0.000e+00
     92.328     4.0618    10.0908     77.151    183.901 106.893383     0.0819     0.2716     1.3440   2853.836  0.000e+00
     92.361     4.0614    10.0991     77.214    184.052 106.979513     0.0820     0.2655     1.3452   2853.848  0.000e+00
     92.387     4.0618    10.0954     77.186    184.197 107.065642     0.0821     0.2777     1.3477   2853.859  0.000e+00
     92.424     4.0617    10.0972     77.200    183.901 106.893384     0.0819     0.2716     1.3428   2853.836  0.000e+00
     92.491     4.0616    10.0998     77.219    184.199 107.065643     0.0821     0.2716     1.3428   2853.859  0.000e+00
     92.575     4.0616    10.1045     77.255    184.199 107.065644     0.0821     0.2686     1.3379   2853.859  0.000e+00
     92.670     4.0614    10.1037     77.249    184.199 107.065645     0.0821     0.2655     1.3367   2853.859  0.000e+00
     92.762     4.0608    10.1037     77.248    184.203 107.065646     0.0821     0.2747     1.3428   2853.859  0.000e+00
     92.852     4.0603    10.0985     77.207    184.207 107.065647     0.0821     0.2655     1.3196   2853.859  0.000e+00
     92.956     4.0606    10.0965     77.192    184.205 107.065648     0.0821     0.2686     1.3233   2853.859  0.000e+00
     93.072     4.0607    10.0978     77.202    184.204 107.065649     0.0821     0.2716     1.3220   2853.859  0.000e+00
     93.199     4.0600    10.0963     77.189    184.209 107.065651     0.0821     0.2686     1.3233   2853.859  0.000e+00
     93.303     4.0599    10.0991     77.210    184.209 107.065652     0.0821     0.2594     1.3440   2853.859  0.000e+00
     93.392     4.0599    10.0989     77.209    184.506 107.237912     0.0822     0.2716     1.3440   2853.883  0.000e+00
     93.448     4.0594    10.0967     77.191    184.657 107.324043     0.0823     0.2686     1.3477   2853.895  0.000e+00
     93.483     4.0586    10.1025     77.233    184.366 107.151783     0.0822     0.2716     1.3440   2853.871  0.000e+00
     93.505     4.0586    10.1026     77.235    184.366 107.151784     0.0822     0.2747     1.3440   2853.871  0.000e+00
     93.543     4.0588    10.0989     77.206    184.365 107.151784     0.0822     0.2716     1.3452   2853.871  0.000e+00
     93.614     4.0588    10.0898     77.137    184.612 107.295335     0.0823     0.2686     1.3452   2853.891  0.000e+00
     93.719     4.0585    10.0865     77.111    184.663 107.324046     0.0823     0.2747     1.3428   2853.895  0.000e+00
     93.853     4.0583    10.0857     77.105    184.516 107.237917     0.0822     0.2747     1.3440   2853.883  0.000e+00
     93.996     4.0581    10.0871     77.115    184.814 107.410179     0.0824     0.2625     1.3416   2853.906  0.000e+00
     94.124     4.0570    10.0947     77.171    184.820 107.410181     0.0824     0.2716     1.3452   2853.906  0.000e+00
     94.221     4.0566    10.0956     77.177    184.823 107.410182     0.0824     0.2686     1.3452   2853.906  0.000e+00
     94.281     4.0566    10.0977     77.193    184.971 107.496314     0.0824     0.2716     1.3416   2853.918  0.000e+00
     94.319     4.0565    10.0976     77.192    184.873 107.438893     0.0824     0.2686     1.3477   2853.910  0.000e+00
     94.351     4.0559    10.1037     77.237    185.124 107.582446     0.0825     0.2655     1.3404   2853.930  0.000e+00
     94.388     4.0560    10.0963     77.181    185.123 107.582446     0.0825     0.2625     1.3428   2853.930  0.000e+00
     94.447     4.0564    10.0901     77.134    184.973 107.496315     0.0824     0.2655     1.3428   2853.918  0.000e+00
     94.543     4.0563    10.0774     77.038    184.973 107.496316     0.0824     0.2686     1.3440   2853.918  0.000e+00
     94.669     4.0558    10.0722     76.996    184.976 107.496318     0.0824     0.2777     1.3452   2853.918  0.000e+00
     94.792     4.0557    10.0713     76.990    185.125 107.582450     0.0825     0.2655     1.3440   2853.930  0.000e+00
     94.898     4.0561    10.0698     76.979    185.024 107.525030     0.0825     0.2716     1.3391   2853.922  0.000e+00
     94.985     4.0556    10.0704     76.982    184.829 107.410190     0.0824     0.2716     1.3428   2853.906  0.000e+00
     95.052     4.0554    10.0737     77.007    185.276 107.668585     0.0826     0.2747     1.3452   2853.941  0.000e+00
     95.121     4.0556    10.0817     77.069    184.978 107.496322     0.0824     0.2716     1.3416   2853.918  0.000e+00
     95.180     4.0559    10.0846     77.092    185.124 107.582454     0.0825     0.2686     1.3440   2853.930  0.000e+00
     95.244     4.0557    10.0971     77.186    184.977 107.496324     0.0824     0.2686     1.3416   2853.918  0.000e+00
     95.317     4.0552    10.0981     77.194    185.277 107.668587     0.0826     0.2625     1.3428   2853.941  0.000e+00
     95.395     4.0555    10.1026     77.229    185.126 107.582456     0.0825     0.2686     1.3428   2853.930  0.000e+00
     95.472     4.0558    10.1029     77.232    185.125 107.582457     0.0825     0.2747     1.3440   2853.930  0.000e+00
     95.548     4.0556    10.1084     77.273    185.126 107.582458     0.0825     0.2686     1.3440   2853.930  0.000e+00
     95.620     4.0551    10.1110     77.292    185.426 107.754722     0.0826     0.2777     1.3465   2853.953  0.000e+00
     95.702     4.0556    10.1089     77.277    185.126 107.582459     0.0825     0.2747     1.3391   2853.930  0.000e+00
     95.789     4.0555    10.1119     77.300    185.275 107.668592     0.0826     0.2777     1.3465   2853.941  0.000e+00
     95.895     4.0550    10.1140     77.315    185.031 107.525041     0.0825     0.2777     1.3452   2853.922  0.000e+00
     96.012     4.0549    10.1218     77.374    185.278 107.668594     0.0826     0.2838     1.3440   2853.941  0.000e+00
     96.119     4.0554    10.1263     77.410    185.275 107.668595     0.0826     0.2747     1.3428   2853.941  0.000e+00
     96.193     4.0554    10.1308     77.444    185.275 107.668596     0.0826     0.2747     1.3562   2853.941  0.000e+00
     96.238     4.0551    10.1271     77.415    185.425 107.754729     0.0826     0.2716     1.3550   2853.953  0.000e+00
     96.271     4.0550    10.1335     77.464    185.129 107.582465     0.0825     0.2747     1.3562   2853.930  0.000e+00
     96.310     4.0554    10.1375     77.495    185.275 107.668597     0.0826     0.2716     1.3562   2853.941  0.000e+00
     96.363     4.0554    10.1377     77.497    185.127 107.582466     0.0825     0.2716     1.3465   2853.930  0.000e+00
     96.436     4.0554    10.1434     77.540    185.276 107.668599     0.0826     0.2686     1.3404   2853.941  0.000e+00
     96.528     4.0553    10.1446     77.549    185.424 107.754731     0.0826     0.2655     1.3452   2853.953  0.000e+00
     96.634     4.0555    10.1392     77.508    185.275 107.668600     0.0826     0.2716     1.3440   2853.941  0.000e+00
     96.737     4.0554    10.1396     77.511    185.127 107.582470     0.0825     0.2686     1.3404   2853.930  0.000e+00
     96.806     4.0550    10.1392     77.507    185.278 107.668602     0.0826     0.2686     1.3391   2853.941  0.000e+00
     96.823     4.0551    10.1353     77.478    185.277 107.668603     0.0826     0.2808     1.3440   2853.941  0.000e+00
     96.829     4.0555    10.1382     77.501    185.275 107.668602     0.0826     0.2655     1.3416   2853.941  0.000e+00
     96.832     4.0557    10.1444     77.548    185.422 107.754734     0.0826     0.2716     1.3440   2853.953  0.000e+00
     96.814     4.0556    10.1390     77.507    185.126 107.582471     0.0825     0.2716     1.3428   2853.930  0.000e+00
     96.808     4.0556    10.1393     77.510    185.274 107.668602     0.0826     0.2716     1.3404   2853.941  0.000e+00
     96.854     4.0567    10.1499     77.592    185.267 107.668602     0.0826     0.2747     1.3440   2853.941  0.000e+00
     96.899     4.0567    10.1477     77.576    185.119 107.582471     0.0825     0.2716     1.3391   2853.930  0.000e+00
     96.924     4.0559    10.1391     77.508    185.124 107.582472     0.0825     0.2655     1.3440   2853.930  0.000e+00
     96.942     4.0555    10.1286     77.427    185.275 107.668604     0.0826     0.2686     1.3440   2853.941  0.000e+00
     96.992     4.0558    10.1287     77.429    185.125 107.582472     0.0825     0.2716     1.3428   2853.930  0.000e+00
     97.072     4.0556    10.1211     77.370    185.126 107.582473     0.0825     0.2686     1.3440   2853.930  0.000e+00
     97.137     4.0554    10.1181     77.347    185.275 107.668606     0.0826     0.2686     1.3428   2853.941  0.000e+00
     97.154     4.0551    10.1128     77.306    185.277 107.668606     0.0826     0.2594     1.3416   2853.941  0.000e+00
